id,cond,trial#,realPattern,userAnswer,correct,c1,c2,c3,playstamp,playendstamp,enterstamp,reactionTime
p11,A(Baseline1),1,143,143,1,1,1,1,77526,79043,82188,3145
p11,A(Baseline1),2,412,432,0,1,0,1,83511,85019,88313,3294
p11,A(Baseline1),3,232,242,0,1,0,1,89478,90983,94829,3846
p11,A(Baseline1),4,313,314,0,1,1,0,95946,97449,100710,3261
p11,A(Baseline1),5,323,313,0,1,0,1,102251,103756,106490,2734
p11,A(Baseline1),6,321,323,0,1,1,0,107923,109427,114187,4760
p11,A(Baseline1),7,431,431,1,1,1,1,115360,116863,119163,2300
p11,A(Baseline1),8,142,141,0,1,1,0,120034,121538,124417,2879
p11,A(Baseline1),9,242,141,0,0,1,0,125579,127083,130140,3057
p11,A(Baseline1),10,434,434,1,1,1,1,130971,132474,136636,4162
p11,A(Baseline1),11,423,413,0,1,0,1,137533,139043,142430,3387
p11,A(Baseline1),12,143,143,1,1,1,1,143294,144802,147247,2445
p11,A(Baseline1),13,342,341,0,1,1,0,148380,149885,152920,3035
p11,A(Baseline1),14,241,141,0,0,1,1,153628,155131,157927,2796
p11,A(Baseline1),15,123,324,0,0,1,0,159178,160681,163516,2835
p11,A(Baseline1),16,314,314,1,1,1,1,164681,166185,169820,3635
p11,A(Baseline1),17,423,423,1,1,1,1,170884,172387,177230,4843
p11,A(Baseline1),18,231,241,0,1,0,1,178288,179791,184052,4261
p11,A(Baseline1),19,131,141,0,1,0,1,185034,186545,189124,2579
p11,A(Baseline1),20,124,124,1,1,1,1,190273,191776,194586,2810
p11,A(Baseline1),21,132,142,0,1,0,1,227246,228752,231556,2804
p11,A(Baseline1),22,132,141,0,1,0,0,232349,233857,236930,3073
p11,A(Baseline1),23,212,232,0,1,0,1,237816,239320,243467,4147
p11,A(Baseline1),24,323,424,0,0,1,0,244335,245838,248810,2972
p11,A(Baseline1),25,434,434,1,1,1,1,249579,251083,254080,2997
p11,A(Baseline1),26,243,243,1,1,1,1,254944,256448,259056,2608
p11,A(Baseline1),27,131,141,0,1,0,1,260049,261553,264245,2692
p11,A(Baseline1),28,141,141,1,1,1,1,265030,266533,269906,3373
p11,A(Baseline1),29,212,232,0,1,0,1,270690,272194,274673,2479
p11,A(Baseline1),30,141,121,0,1,0,1,275552,277056,280038,2982
p11,A(Baseline1),31,312,412,0,0,1,1,280814,282317,284981,2664
p11,A(Baseline1),32,342,421,0,0,0,0,285827,287331,289736,2405
p11,A(Baseline1),33,423,424,0,1,1,0,290437,291940,294316,2376
p11,A(Baseline1),34,212,232,0,1,0,1,295507,297009,299317,2308
p11,A(Baseline1),35,243,243,1,1,1,1,300158,301661,303458,1797
p11,A(Baseline1),36,234,242,0,1,0,0,304258,305761,308025,2264
p11,A(Baseline1),37,323,424,0,0,1,0,308837,310341,312588,2247
p11,A(Baseline1),38,414,414,1,1,1,1,313383,314887,318070,3183
p11,A(Baseline1),39,412,412,1,1,1,1,319379,320882,323178,2296
p11,A(Baseline1),40,213,234,0,1,0,0,324777,326280,328421,2141
p11,A(Baseline1),41,321,321,1,1,1,1,361407,362919,365604,2685
p11,A(Baseline1),42,343,424,0,0,0,0,366474,367978,372433,4455
p11,A(Baseline1),43,121,123,0,1,1,0,373310,374814,377949,3135
p11,A(Baseline1),44,131,141,0,1,0,1,378669,380172,382625,2453
p11,A(Baseline1),45,312,412,0,0,1,1,383521,385023,387347,2324
p11,A(Baseline1),46,324,314,0,1,0,1,388243,389746,392695,2949
p11,A(Baseline1),47,424,414,0,1,0,1,393521,395024,397046,2022
p11,A(Baseline1),48,234,132,0,0,1,0,397851,399355,401148,1793
p11,A(Baseline1),49,123,123,1,1,1,1,402049,403551,405430,1879
p11,A(Baseline1),50,241,241,1,1,1,1,406280,407783,409769,1986
p11,A(Baseline1),51,414,414,1,1,1,1,410564,412067,413993,1926
p11,A(Baseline1),52,241,241,1,1,1,1,414809,416313,419314,3001
p11,A(Baseline1),53,124,124,1,1,1,1,420141,421644,423629,1985
p11,A(Baseline1),54,412,412,1,1,1,1,424595,426098,428825,2727
p11,A(Baseline1),55,313,313,1,1,1,1,429572,431075,432861,1786
p11,A(Baseline1),56,314,314,1,1,1,1,433749,435252,436944,1692
p11,A(Baseline1),57,421,413,0,1,0,0,437776,439279,441487,2208
p11,A(Baseline1),58,424,414,0,1,0,1,442310,443813,445461,1648
p11,A(Baseline1),59,214,134,0,0,0,1,446344,447848,449472,1624
p11,A(Baseline1),60,242,141,0,0,1,0,450357,451860,454041,2181
p11,A(Baseline1),61,243,243,1,1,1,1,485558,487064,489099,2035
p11,A(Baseline1),62,321,413,0,0,0,0,490380,491883,493324,1441
p11,A(Baseline1),63,134,142,0,1,0,0,494021,495527,497105,1578
p11,A(Baseline1),64,342,341,0,1,1,0,497937,499441,501116,1675
p11,A(Baseline1),65,124,124,1,1,1,1,501924,503427,505964,2537
p11,A(Baseline1),66,432,431,0,1,1,0,506758,508262,510303,2041
p11,A(Baseline1),67,214,134,0,0,0,1,511126,512630,515068,2438
p11,A(Baseline1),68,341,321,0,1,0,1,516135,517638,520233,2595
p11,A(Baseline1),69,432,231,0,0,1,0,520966,522470,525537,3067
p11,A(Baseline1),70,421,413,0,1,0,0,526196,527700,530050,2350
p11,A(Baseline1),71,431,431,1,1,1,1,531026,532530,534715,2185
p11,A(Baseline1),72,314,414,0,0,1,1,535619,537123,539379,2256
p11,A(Baseline1),73,413,413,1,1,1,1,540084,541587,544122,2535
p11,A(Baseline1),74,324,313,0,1,0,0,545054,546557,548160,1603
p11,A(Baseline1),75,232,231,0,1,1,0,548820,550325,552897,2572
p11,A(Baseline1),76,142,141,0,1,1,0,553606,555111,557957,2846
p11,A(Baseline1),77,343,343,1,1,1,1,558807,560311,562420,2109
p11,A(Baseline1),78,413,213,0,0,1,1,563370,564874,567116,2242
p11,A(Baseline1),79,414,414,1,1,1,1,567830,569333,571852,2519
p11,A(Baseline1),80,141,141,1,1,1,1,572736,574240,576394,2154
p11,A(Baseline1),81,432,432,1,1,1,1,607719,609227,611413,2186
p11,A(Baseline1),82,434,434,1,1,1,1,612259,613763,615731,1968
p11,A(Baseline1),83,143,143,1,1,1,1,616487,617997,620442,2445
p11,A(Baseline1),84,121,121,1,1,1,1,621267,622771,624238,1467
p11,A(Baseline1),85,142,142,1,1,1,1,625125,626627,628970,2343
p11,A(Baseline1),86,121,121,1,1,1,1,630175,631679,634162,2483
p11,A(Baseline1),87,134,142,0,1,0,0,635000,636503,638770,2267
p11,A(Baseline1),88,134,142,0,1,0,0,639970,641473,643337,1864
p11,A(Baseline1),89,313,414,0,0,1,0,644182,645684,647623,1939
p11,A(Baseline1),90,424,424,1,1,1,1,648454,649957,652948,2991
p11,A(Baseline1),91,341,341,1,1,1,1,653892,655396,657614,2218
p11,A(Baseline1),92,324,313,0,1,0,0,658412,659916,662668,2752
p11,A(Baseline1),93,413,414,0,1,1,0,663907,665410,668887,3477
p11,A(Baseline1),94,213,213,1,1,1,1,669716,671219,673387,2168
p11,A(Baseline1),95,234,132,0,0,1,0,674170,675674,678234,2560
p11,A(Baseline1),96,231,231,1,1,1,1,679008,680513,682830,2317
p11,A(Baseline1),97,341,321,0,1,0,1,683699,685202,690195,4993
p11,A(Baseline1),98,132,141,0,1,0,0,690966,692470,694789,2319
p11,A(Baseline1),99,231,241,0,1,0,1,695518,697021,699511,2490
p11,A(Baseline1),100,421,421,1,1,1,1,700316,701820,704285,2465
p11,A(Baseline1),101,431,431,1,1,1,1,735581,737094,739374,2280
p11,A(Baseline1),102,242,242,1,1,1,1,740270,741775,744035,2260
p11,A(Baseline1),103,343,321,0,1,0,0,744838,746342,748343,2001
p11,A(Baseline1),104,213,214,0,1,1,0,749229,750732,753627,2895
p11,A(Baseline1),105,123,123,1,1,1,1,754502,756006,757990,1984
p11,A(Baseline1),106,312,412,0,0,1,1,758722,760225,764122,3897
p11,A(Baseline1),107,232,242,0,1,0,1,764975,766478,768883,2405
p11,A(Baseline1),108,214,234,0,1,0,1,769721,771224,774724,3500
