id,cond,trial#,realPattern,userAnswer,correct,c1,c2,c3,playstamp,playendstamp,enterstamp,reactionTime
p11,C(Baseline2),1,213,214,0,1,1,0,2402,3904,6021,2117
p11,C(Baseline2),2,131,141,0,1,0,1,6875,8378,10721,2343
p11,C(Baseline2),3,341,421,0,0,0,1,11597,13100,17385,4285
p11,C(Baseline2),4,132,142,0,1,0,1,18233,19736,21662,1926
p11,C(Baseline2),5,434,434,1,1,1,1,22418,23921,26177,2256
p11,C(Baseline2),6,121,121,1,1,1,1,26976,28480,30199,1719
p11,C(Baseline2),7,412,412,1,1,1,1,30893,32396,34613,2217
p11,C(Baseline2),8,234,242,0,1,0,0,35352,36855,38807,1952
p11,C(Baseline2),9,121,121,1,1,1,1,39477,40980,42876,1896
p11,C(Baseline2),10,124,124,1,1,1,1,43525,45028,46893,1865
p11,C(Baseline2),11,231,241,0,1,0,1,47706,49209,50886,1677
p11,C(Baseline2),12,423,424,0,1,1,0,51699,53203,54734,1531
p11,C(Baseline2),13,242,242,1,1,1,1,55601,57104,58935,1831
p11,C(Baseline2),14,414,214,0,0,1,1,59724,61227,63553,2326
p11,C(Baseline2),15,231,241,0,1,0,1,64258,65761,68067,2306
p11,C(Baseline2),16,324,324,1,1,1,1,68755,70258,72926,2668
p11,C(Baseline2),17,432,431,0,1,1,0,73645,75148,76867,1719
p11,C(Baseline2),18,324,313,0,1,0,0,77549,79054,81221,2167
p11,C(Baseline2),19,314,314,1,1,1,1,81864,83367,85084,1717
p11,C(Baseline2),20,413,414,0,1,1,0,86250,87753,89845,2092
p11,C(Baseline2),21,241,241,1,1,1,1,121102,122611,124976,2365
p11,C(Baseline2),22,341,421,0,0,0,1,125792,127296,128949,1653
p11,C(Baseline2),23,143,142,0,1,1,0,129653,131156,132975,1819
p11,C(Baseline2),24,313,314,0,1,1,0,133850,135353,137945,2592
p11,C(Baseline2),25,414,414,1,1,1,1,138861,140364,142666,2302
p11,C(Baseline2),26,424,424,1,1,1,1,143901,145404,147475,2071
p11,C(Baseline2),27,343,343,1,1,1,1,148184,149687,150898,1211
p11,C(Baseline2),28,431,431,1,1,1,1,151663,153167,154525,1358
p11,C(Baseline2),29,434,434,1,1,1,1,155189,156692,159169,2477
p11,C(Baseline2),30,241,241,1,1,1,1,159860,161364,163226,1862
p11,C(Baseline2),31,323,313,0,1,0,1,163899,165403,166784,1381
p11,C(Baseline2),32,214,234,0,1,0,1,167547,169050,170960,1910
p11,C(Baseline2),33,243,243,1,1,1,1,171743,173246,174686,1440
p11,C(Baseline2),34,214,214,1,1,1,1,175354,176858,179264,2406
p11,C(Baseline2),35,242,242,1,1,1,1,180341,181844,183481,1637
p11,C(Baseline2),36,124,124,1,1,1,1,184253,185757,187970,2213
p11,C(Baseline2),37,434,434,1,1,1,1,188656,190160,192174,2014
p11,C(Baseline2),38,313,313,1,1,1,1,193020,194523,197323,2800
p11,C(Baseline2),39,232,242,0,1,0,1,198367,199870,202584,2714
p11,C(Baseline2),40,421,413,0,1,0,0,203828,205330,208933,3603
p11,C(Baseline2),41,243,243,1,1,1,1,241275,242786,245581,2795
p11,C(Baseline2),42,323,424,0,0,1,0,246592,248097,250951,2854
p11,C(Baseline2),43,312,314,0,1,1,0,251803,253306,255775,2469
p11,C(Baseline2),44,323,323,1,1,1,1,256603,258106,260627,2521
p11,C(Baseline2),45,212,134,0,0,0,0,262182,263685,265676,1991
p11,C(Baseline2),46,131,141,0,1,0,1,267131,268634,271975,3341
p11,C(Baseline2),47,431,431,1,1,1,1,272792,274295,277002,2707
p11,C(Baseline2),48,424,424,1,1,1,1,277919,279422,281913,2491
p11,C(Baseline2),49,141,143,0,1,1,0,282715,284219,286393,2174
p11,C(Baseline2),50,242,141,0,0,1,0,287320,288823,291029,2206
p11,C(Baseline2),51,414,414,1,1,1,1,291860,293363,295550,2187
p11,C(Baseline2),52,232,242,0,1,0,1,296373,297876,300185,2309
p11,C(Baseline2),53,424,414,0,1,0,1,301079,302582,305716,3134
p11,C(Baseline2),54,213,214,0,1,1,0,306546,308049,311412,3363
p11,C(Baseline2),55,423,423,1,1,1,1,312294,313797,316164,2367
p11,C(Baseline2),56,423,424,0,1,1,0,316999,318503,321408,2905
p11,C(Baseline2),57,314,314,1,1,1,1,322264,323767,325343,1576
p11,C(Baseline2),58,231,231,1,1,1,1,326125,327628,329752,2124
p11,C(Baseline2),59,412,412,1,1,1,1,330656,332159,334371,2212
p11,C(Baseline2),60,343,343,1,1,1,1,335256,336759,340115,3356
p11,C(Baseline2),61,141,141,1,1,1,1,371574,373091,375684,2593
p11,C(Baseline2),62,312,412,0,0,1,1,376575,378078,380658,2580
p11,C(Baseline2),63,342,341,0,1,1,0,381485,382988,385937,2949
p11,C(Baseline2),64,312,314,0,1,1,0,386617,388121,390473,2352
p11,C(Baseline2),65,413,414,0,1,1,0,391292,392795,395175,2380
p11,C(Baseline2),66,121,121,1,1,1,1,396026,397530,400166,2636
p11,C(Baseline2),67,141,141,1,1,1,1,401033,402539,404557,2018
p11,C(Baseline2),68,123,123,1,1,1,1,405380,406883,408969,2086
p11,C(Baseline2),69,243,243,1,1,1,1,409758,411261,413220,1959
p11,C(Baseline2),70,343,343,1,1,1,1,414331,415834,418013,2179
p11,C(Baseline2),71,313,413,0,0,1,1,418807,420310,423019,2709
p11,C(Baseline2),72,342,341,0,1,1,0,423778,425281,427326,2045
p11,C(Baseline2),73,321,421,0,0,1,1,428113,429616,431716,2100
p11,C(Baseline2),74,412,434,0,1,0,0,432671,434174,436435,2261
p11,C(Baseline2),75,341,341,1,1,1,1,437215,438719,440560,1841
p11,C(Baseline2),76,123,123,1,1,1,1,441316,442820,445235,2415
p11,C(Baseline2),77,234,242,0,1,0,0,446067,447570,449509,1939
p11,C(Baseline2),78,234,242,0,1,0,0,450255,451758,454723,2965
p11,C(Baseline2),79,342,341,0,1,1,0,455472,456975,458550,1575
p11,C(Baseline2),80,132,141,0,1,0,0,459253,460756,462746,1990
p11,C(Baseline2),81,143,142,0,1,1,0,493684,495191,497410,2219
p11,C(Baseline2),82,132,142,0,1,0,1,498295,499800,502128,2328
p11,C(Baseline2),83,241,241,1,1,1,1,502813,504316,506619,2303
p11,C(Baseline2),84,432,432,1,1,1,1,507319,508822,511147,2325
p11,C(Baseline2),85,314,314,1,1,1,1,511909,513412,515221,1809
p11,C(Baseline2),86,123,123,1,1,1,1,515940,517444,519867,2423
p11,C(Baseline2),87,431,431,1,1,1,1,520591,522094,524159,2065
p11,C(Baseline2),88,212,212,1,1,1,1,524865,526368,528742,2374
p11,C(Baseline2),89,432,432,1,1,1,1,529467,530970,533286,2316
p11,C(Baseline2),90,421,423,0,1,1,0,534018,535521,537410,1889
p11,C(Baseline2),91,213,213,1,1,1,1,538213,539716,541894,2178
p11,C(Baseline2),92,143,243,0,0,1,1,542997,544501,546516,2015
p11,C(Baseline2),93,214,212,0,1,1,0,547239,548741,550584,1843
p11,C(Baseline2),94,324,323,0,1,1,0,551306,552808,555169,2361
p11,C(Baseline2),95,321,321,1,1,1,1,556004,557508,559408,1900
p11,C(Baseline2),96,134,132,0,1,1,0,560096,561599,563911,2312
p11,C(Baseline2),97,413,414,0,1,1,0,564603,566107,569187,3080
p11,C(Baseline2),98,421,423,0,1,1,0,569893,571396,573953,2557
p11,C(Baseline2),99,321,421,0,0,1,1,575199,576702,578588,1886
p11,C(Baseline2),100,142,142,1,1,1,1,579526,581029,582518,1489
p11,C(Baseline2),101,232,242,0,1,0,1,613508,615019,618077,3058
p11,C(Baseline2),102,134,142,0,1,0,0,618856,620360,622403,2043
p11,C(Baseline2),103,142,142,1,1,1,1,623078,624581,627416,2835
p11,C(Baseline2),104,142,141,0,1,1,0,628503,630006,632557,2551
p11,C(Baseline2),105,124,124,1,1,1,1,633346,634850,636889,2039
p11,C(Baseline2),106,131,141,0,1,0,1,637598,639101,642613,3512
p11,C(Baseline2),107,212,212,1,1,1,1,643367,644870,647384,2514
p11,C(Baseline2),108,134,142,0,1,0,0,648190,649694,652407,2713
