id,cond,trial#,realPattern,userAnswer,correct,c1,c2,c3,playstamp,playendstamp,enterstamp,reactionTime
p12,B(Approach),1,141,142,0,1,1,0,8697,10216,12770,2554
p12,B(Approach),2,323,424,0,0,1,0,14070,15581,18431,2850
p12,B(Approach),3,342,421,0,0,0,0,19784,21287,23350,2063
p12,B(Approach),4,232,242,0,1,0,1,24677,26180,28331,2151
p12,B(Approach),5,312,412,0,0,1,1,29852,31356,33356,2000
p12,B(Approach),6,232,242,0,1,0,1,34511,36016,38931,2915
p12,B(Approach),7,413,434,0,1,0,0,39889,41391,44061,2670
p12,B(Approach),8,134,142,0,1,0,0,45115,46621,48890,2269
p12,B(Approach),9,234,242,0,1,0,0,49862,51364,53548,2184
p12,B(Approach),10,414,432,0,1,0,0,54933,56437,60622,4185
p12,B(Approach),11,212,232,0,1,0,1,61522,63025,65638,2613
p12,B(Approach),12,121,423,0,0,1,0,66566,68069,70095,2026
p12,B(Approach),13,123,324,0,0,1,0,70991,72495,74947,2452
p12,B(Approach),14,413,414,0,1,1,0,76260,77767,80222,2455
p12,B(Approach),15,142,142,1,1,1,1,81363,82866,86350,3484
p12,B(Approach),16,143,342,0,0,1,0,87359,88862,91912,3050
p12,B(Approach),17,124,324,0,0,1,1,93876,95378,98079,2701
p12,B(Approach),18,434,423,0,1,0,0,99231,100735,102913,2178
p12,B(Approach),19,414,414,1,1,1,1,104861,106364,109386,3022
p12,B(Approach),20,432,431,0,1,1,0,110725,112229,114410,2181
p12,B(Approach),21,132,342,0,0,0,1,146560,148071,150101,2030
p12,B(Approach),22,241,243,0,1,1,0,150879,152392,154572,2180
p12,B(Approach),23,142,342,0,0,1,1,155966,157469,159330,1861
p12,B(Approach),24,232,241,0,1,0,0,160349,161859,163729,1870
p12,B(Approach),25,324,414,0,0,0,1,164459,165963,169210,3247
p12,B(Approach),26,141,341,0,0,1,1,170264,171766,173897,2131
p12,B(Approach),27,312,431,0,0,0,0,174916,176420,178343,1923
p12,B(Approach),28,421,423,0,1,1,0,179258,180766,184315,3549
p12,B(Approach),29,412,431,0,1,0,0,185352,186857,188676,1819
p12,B(Approach),30,342,421,0,0,0,0,189394,190897,193521,2624
p12,B(Approach),31,341,421,0,0,0,1,194560,196063,202993,6930
p12,B(Approach),32,214,234,0,1,0,1,203807,205312,207383,2071
p12,B(Approach),33,423,424,0,1,1,0,208377,209880,212112,2232
p12,B(Approach),34,321,423,0,0,1,0,212917,214421,216445,2024
p12,B(Approach),35,123,424,0,0,1,0,217291,218794,221388,2594
p12,B(Approach),36,243,243,1,1,1,1,222258,223760,225771,2011
p12,B(Approach),37,313,314,0,1,1,0,226619,228123,233920,5797
p12,B(Approach),38,341,323,0,1,0,0,234771,236274,239746,3472
p12,B(Approach),39,313,413,0,0,1,1,241386,242889,252469,9580
p12,B(Approach),40,131,132,0,1,1,0,254576,256079,259420,3341
p12,B(Approach),41,424,212,0,0,0,0,291785,293296,296318,3022
p12,B(Approach),42,432,431,0,1,1,0,297287,298792,300855,2063
p12,B(Approach),43,131,132,0,1,1,0,301798,303303,307868,4565
p12,B(Approach),44,242,241,0,1,1,0,308694,310198,312482,2284
p12,B(Approach),45,343,424,0,0,0,0,313337,314842,317193,2351
p12,B(Approach),46,341,421,0,0,0,1,318032,319535,321998,2463
p12,B(Approach),47,143,243,0,0,1,1,322880,324383,326651,2268
p12,B(Approach),48,312,431,0,0,0,0,328373,329877,331527,1650
p12,B(Approach),49,213,234,0,1,0,0,332610,334113,335989,1876
p12,B(Approach),50,213,213,1,1,1,1,336769,338273,339887,1614
p12,B(Approach),51,424,424,1,1,1,1,340685,342190,344089,1899
p12,B(Approach),52,131,341,0,0,0,1,344932,346436,349163,2727
p12,B(Approach),53,212,212,1,1,1,1,349989,351493,353236,1743
p12,B(Approach),54,323,424,0,0,1,0,353950,355454,356992,1538
p12,B(Approach),55,423,242,0,0,0,0,357826,359330,361677,2347
p12,B(Approach),56,434,234,0,0,1,1,362456,363960,370101,6141
p12,B(Approach),57,324,424,0,0,1,1,371201,372705,374671,1966
p12,B(Approach),58,132,142,0,1,0,1,375531,377035,378914,1879
p12,B(Approach),59,124,124,1,1,1,1,379708,381212,382932,1720
p12,B(Approach),60,132,342,0,0,0,1,384239,385743,387439,1696
p12,B(Approach),61,314,412,0,0,1,0,418947,420464,422968,2504
p12,B(Approach),62,343,424,0,0,0,0,424283,425788,427459,1671
p12,B(Approach),63,142,123,0,1,0,0,428907,430410,433091,2681
p12,B(Approach),64,414,412,0,1,1,0,433890,435393,437874,2481
p12,B(Approach),65,242,243,0,1,1,0,438697,440201,441552,1351
p12,B(Approach),66,431,423,0,1,0,0,442519,444023,446810,2787
p12,B(Approach),67,421,421,1,1,1,1,447776,449279,451254,1975
p12,B(Approach),68,214,234,0,1,0,1,452019,453522,455455,1933
p12,B(Approach),69,434,431,0,1,1,0,456467,457972,459931,1959
p12,B(Approach),70,234,242,0,1,0,0,460746,462249,464286,2037
p12,B(Approach),71,143,424,0,0,0,0,464984,466487,468245,1758
p12,B(Approach),72,243,243,1,1,1,1,468962,470465,472301,1836
p12,B(Approach),73,412,431,0,1,0,0,473017,474521,476155,1634
p12,B(Approach),74,213,213,1,1,1,1,477605,479109,480648,1539
p12,B(Approach),75,241,243,0,1,1,0,481496,483001,485753,2752
p12,B(Approach),76,431,421,0,1,0,1,486844,488347,497179,8832
p12,B(Approach),77,423,213,0,0,0,1,498151,499654,506318,6664
p12,B(Approach),78,432,431,0,1,1,0,507497,509000,510684,1684
p12,B(Approach),79,324,424,0,0,1,1,511646,513151,515144,1993
p12,B(Approach),80,342,421,0,0,0,0,516465,517968,519507,1539
p12,B(Approach),81,124,123,0,1,1,0,551041,552553,555450,2897
p12,B(Approach),82,431,431,1,1,1,1,556484,557989,559651,1662
p12,B(Approach),83,141,121,0,1,0,1,560596,562100,564828,2728
p12,B(Approach),84,121,313,0,0,0,0,566303,567807,569836,2029
p12,B(Approach),85,123,314,0,0,0,0,570883,572386,574286,1900
p12,B(Approach),86,323,424,0,0,1,0,575436,576940,578741,1801
p12,B(Approach),87,421,421,1,1,1,1,579696,581200,583181,1981
p12,B(Approach),88,424,424,1,1,1,1,583914,585417,587369,1952
p12,B(Approach),89,134,342,0,0,0,0,588242,589746,591540,1794
p12,B(Approach),90,321,423,0,0,1,0,592248,593751,595777,2026
p12,B(Approach),91,134,342,0,0,0,0,596668,598173,600527,2354
p12,B(Approach),92,231,243,0,1,0,0,601492,602996,604543,1547
p12,B(Approach),93,314,414,0,0,1,1,605513,607016,609487,2471
p12,B(Approach),94,241,423,0,0,0,0,611032,612536,615151,2615
p12,B(Approach),95,121,123,0,1,1,0,616188,617691,619591,1900
p12,B(Approach),96,242,241,0,1,1,0,620988,622491,624459,1968
p12,B(Approach),97,212,232,0,1,0,1,625371,626875,628773,1898
p12,B(Approach),98,231,243,0,1,0,0,629636,631140,632949,1809
p12,B(Approach),99,314,424,0,0,0,1,634203,635708,637672,1964
p12,B(Approach),100,234,142,0,0,0,0,638697,640201,642426,2225
p12,B(Approach),101,412,242,0,0,0,1,674107,675615,680224,4609
p12,B(Approach),102,231,234,0,1,1,0,681496,683004,687123,4119
p12,B(Approach),103,343,424,0,0,0,0,688960,690465,693289,2824
p12,B(Approach),104,413,413,1,1,1,1,695031,696536,700139,3603
p12,B(Approach),105,214,214,1,1,1,1,701321,702824,706896,4072
p12,B(Approach),106,321,342,0,1,0,0,708399,709903,713102,3199
p12,B(Approach),107,313,412,0,0,1,0,714477,715980,718198,2218
p12,B(Approach),108,243,243,1,1,1,1,720324,721828,724375,2547
