id,cond,trial#,realPattern,userAnswer,correct,c1,c2,c3,playstamp,playendstamp,enterstamp,reactionTime
p1,A(Baseline1),1,343,143,0,0,1,1,62452,63968,67660,3692
p1,A(Baseline1),2,342,142,0,0,1,1,69028,70532,76059,5527
p1,A(Baseline1),3,424,414,0,1,0,1,77364,78868,82003,3135
p1,A(Baseline1),4,243,143,0,0,1,1,83132,84636,87091,2455
p1,A(Baseline1),5,424,124,0,0,1,1,87925,89428,92243,2815
p1,A(Baseline1),6,242,141,0,0,1,0,93172,94676,97691,3015
p1,A(Baseline1),7,343,432,0,0,0,0,98644,100147,103251,3104
p1,A(Baseline1),8,141,141,1,1,1,1,104172,105675,108747,3072
p1,A(Baseline1),9,423,413,0,1,0,1,109756,111259,115147,3888
p1,A(Baseline1),10,243,124,0,0,0,0,116012,117515,119507,1992
p1,A(Baseline1),11,341,413,0,0,0,0,120236,121739,125619,3880
p1,A(Baseline1),12,213,134,0,0,0,0,126563,128067,131331,3264
p1,A(Baseline1),13,321,421,0,0,1,1,132291,133794,136363,2569
p1,A(Baseline1),14,324,424,0,0,1,1,137291,138795,140803,2008
p1,A(Baseline1),15,342,124,0,0,0,0,141684,143187,145579,2392
p1,A(Baseline1),16,314,424,0,0,0,1,146387,147890,150243,2353
p1,A(Baseline1),17,234,242,0,1,0,0,151084,152587,155659,3072
p1,A(Baseline1),18,414,214,0,0,1,1,156548,158051,160443,2392
p1,A(Baseline1),19,341,431,0,0,0,1,161283,162786,166995,4209
p1,A(Baseline1),20,341,423,0,0,0,0,168059,169564,172491,2927
p1,A(Baseline1),21,124,124,1,1,1,1,203780,205292,207027,1735
p1,A(Baseline1),22,232,141,0,0,0,0,207860,209363,212083,2720
p1,A(Baseline1),23,241,143,0,0,1,0,212892,214401,217731,3330
p1,A(Baseline1),24,231,131,0,0,1,1,218635,220139,222683,2544
p1,A(Baseline1),25,231,132,0,0,1,0,223556,225060,227435,2375
p1,A(Baseline1),26,343,424,0,0,0,0,228308,229811,233659,3848
p1,A(Baseline1),27,132,142,0,1,0,1,234588,236092,238419,2327
p1,A(Baseline1),28,212,234,0,1,0,0,239244,240747,245683,4936
p1,A(Baseline1),29,143,124,0,1,0,0,246588,248092,250883,2791
p1,A(Baseline1),30,143,143,1,1,1,1,251724,253227,256267,3040
p1,A(Baseline1),31,121,124,0,1,1,0,257060,258564,260596,2032
p1,A(Baseline1),32,131,141,0,1,0,1,261419,262923,265051,2128
p1,A(Baseline1),33,313,424,0,0,0,0,265877,267381,270043,2662
p1,A(Baseline1),34,241,124,0,0,0,0,270780,272283,274779,2496
p1,A(Baseline1),35,413,413,1,1,1,1,275597,277100,279723,2623
p1,A(Baseline1),36,242,141,0,0,1,0,280460,281964,284483,2519
p1,A(Baseline1),37,323,424,0,0,1,0,285244,286748,289211,2463
p1,A(Baseline1),38,412,412,1,1,1,1,290140,291644,294699,3055
p1,A(Baseline1),39,313,412,0,0,1,0,295445,296948,299675,2727
p1,A(Baseline1),40,434,431,0,1,1,0,300468,301971,304867,2896
p1,A(Baseline1),41,432,431,0,1,1,0,336292,337799,339994,2195
p1,A(Baseline1),42,314,134,0,0,0,1,340819,342324,345123,2799
p1,A(Baseline1),43,423,413,0,1,0,1,345988,347495,350243,2748
p1,A(Baseline1),44,412,412,1,1,1,1,351100,352604,355003,2399
p1,A(Baseline1),45,131,131,1,1,1,1,356236,357739,360315,2576
p1,A(Baseline1),46,214,234,0,1,0,1,361165,362667,365299,2632
p1,A(Baseline1),47,424,414,0,1,0,1,366020,367523,369427,1904
p1,A(Baseline1),48,342,431,0,0,0,0,370324,371827,374363,2536
p1,A(Baseline1),49,123,124,0,1,1,0,375220,376725,378948,2223
p1,A(Baseline1),50,321,423,0,0,1,0,379708,381212,383852,2640
p1,A(Baseline1),51,231,141,0,0,0,1,384828,386332,388163,1831
p1,A(Baseline1),52,413,434,0,1,0,0,389060,390563,392996,2433
p1,A(Baseline1),53,243,143,0,0,1,1,393915,395419,398211,2792
p1,A(Baseline1),54,431,431,1,1,1,1,399116,400621,403043,2422
p1,A(Baseline1),55,212,132,0,0,0,1,403933,405436,408107,2671
p1,A(Baseline1),56,321,413,0,0,0,0,409468,410972,412964,1992
p1,A(Baseline1),57,414,234,0,0,0,1,413861,415364,417995,2631
p1,A(Baseline1),58,141,143,0,1,1,0,418916,420419,422171,1752
p1,A(Baseline1),59,214,134,0,0,0,1,423452,424954,427323,2369
p1,A(Baseline1),60,121,123,0,1,1,0,428148,429651,432619,2968
p1,A(Baseline1),61,432,231,0,0,1,0,464171,465679,468459,2780
p1,A(Baseline1),62,213,132,0,0,0,0,469548,471051,473011,1960
p1,A(Baseline1),63,134,123,0,1,0,0,473748,475251,477370,2119
p1,A(Baseline1),64,412,412,1,1,1,1,478244,479747,482795,3048
p1,A(Baseline1),65,124,124,1,1,1,1,483924,485426,487370,1944
p1,A(Baseline1),66,241,141,0,0,1,1,488221,489724,491443,1719
p1,A(Baseline1),67,313,124,0,0,0,0,492156,493658,496796,3138
p1,A(Baseline1),68,434,132,0,0,1,0,497548,499052,502955,3903
p1,A(Baseline1),69,234,142,0,0,0,0,503851,505354,507411,2057
p1,A(Baseline1),70,421,324,0,0,1,0,508236,509739,512347,2608
p1,A(Baseline1),71,232,142,0,0,0,1,513100,514603,516963,2360
p1,A(Baseline1),72,234,143,0,0,0,0,517940,519444,521740,2296
p1,A(Baseline1),73,141,143,0,1,1,0,522484,523989,528019,4030
p1,A(Baseline1),74,314,134,0,0,0,1,528764,530267,531907,1640
p1,A(Baseline1),75,414,132,0,0,0,0,532611,534114,536723,2609
p1,A(Baseline1),76,142,123,0,1,0,0,537476,538980,547059,8079
p1,A(Baseline1),77,143,143,1,1,1,1,547989,549492,551275,1783
p1,A(Baseline1),78,232,142,0,0,0,1,552164,553666,555483,1817
p1,A(Baseline1),79,242,123,0,0,0,0,556228,557731,561371,3640
p1,A(Baseline1),80,132,142,0,1,0,1,562157,563660,565075,1415
p1,A(Baseline1),81,312,412,0,0,1,1,596253,597761,600011,2250
p1,A(Baseline1),82,123,124,0,1,1,0,600739,602243,604123,1880
p1,A(Baseline1),83,431,431,1,1,1,1,604860,606363,608547,2184
p1,A(Baseline1),84,421,423,0,1,1,0,609283,610786,612363,1577
p1,A(Baseline1),85,431,431,1,1,1,1,613092,614595,616714,2119
p1,A(Baseline1),86,324,421,0,0,1,0,617475,618979,621075,2096
p1,A(Baseline1),87,323,424,0,0,1,0,621884,623387,625667,2280
p1,A(Baseline1),88,134,241,0,0,0,0,626539,628042,629987,1945
p1,A(Baseline1),89,132,241,0,0,0,0,630836,632341,634155,1814
p1,A(Baseline1),90,312,421,0,0,0,0,634876,636379,638243,1864
p1,A(Baseline1),91,131,241,0,0,0,1,639173,640676,643451,2775
p1,A(Baseline1),92,134,134,1,1,1,1,644292,645796,647531,1735
p1,A(Baseline1),93,423,414,0,1,0,0,648332,649835,652123,2288
p1,A(Baseline1),94,121,134,0,1,0,0,653020,654523,657403,2880
p1,A(Baseline1),95,421,413,0,1,0,0,658268,659771,662325,2554
p1,A(Baseline1),96,323,424,0,0,1,0,663140,664644,666932,2288
p1,A(Baseline1),97,324,414,0,0,0,1,667788,669292,672483,3191
p1,A(Baseline1),98,434,434,1,1,1,1,673308,674811,677467,2656
p1,A(Baseline1),99,312,423,0,0,0,0,678500,680004,683171,3167
p1,A(Baseline1),100,123,123,1,1,1,1,683996,685499,687955,2456
p1,A(Baseline1),101,124,124,1,1,1,1,719268,720776,722811,2035
p1,A(Baseline1),102,213,234,0,1,0,0,723636,725142,726867,1725
p1,A(Baseline1),103,432,431,0,1,1,0,727644,729147,731555,2408
p1,A(Baseline1),104,413,413,1,1,1,1,732492,733995,735795,1800
p1,A(Baseline1),105,142,141,0,1,1,0,736796,738300,740539,2239
p1,A(Baseline1),106,212,132,0,0,0,1,741412,742915,745419,2504
p1,A(Baseline1),107,214,232,0,1,0,0,746308,747811,750779,2968
p1,A(Baseline1),108,142,124,0,1,0,0,752323,753827,756707,2880
