id,cond,trial#,realPattern,userAnswer,correct,c1,c2,c3,playstamp,playendstamp,enterstamp,reactionTime
p2,A(Baseline1),1,423,424,0,1,1,0,2266,3769,5939,2170
p2,A(Baseline1),2,141,142,0,1,1,0,6651,8154,10426,2272
p2,A(Baseline1),3,323,423,0,0,1,1,11220,12723,15570,2847
p2,A(Baseline1),4,141,142,0,1,1,0,16411,17915,25755,7840
p2,A(Baseline1),5,243,243,1,1,1,1,26451,27954,30843,2889
p2,A(Baseline1),6,121,323,0,0,1,0,31611,33115,35226,2111
p2,A(Baseline1),7,131,243,0,0,0,0,35995,37498,40162,2664
p2,A(Baseline1),8,434,434,1,1,1,1,40867,42371,44642,2271
p2,A(Baseline1),9,314,414,0,0,1,1,45826,47329,50362,3033
p2,A(Baseline1),10,324,424,0,0,1,1,51116,52619,54555,1936
p2,A(Baseline1),11,341,421,0,0,0,1,55259,56762,58923,2161
p2,A(Baseline1),12,314,412,0,0,1,0,59939,61442,64059,2617
p2,A(Baseline1),13,431,431,1,1,1,1,64803,66307,69306,2999
p2,A(Baseline1),14,313,414,0,0,1,0,70011,71514,80602,9088
p2,A(Baseline1),15,343,343,1,1,1,1,81314,82817,85466,2649
p2,A(Baseline1),16,321,421,0,0,1,1,86243,87746,91026,3280
p2,A(Baseline1),17,323,424,0,0,1,0,91747,93250,96267,3017
p2,A(Baseline1),18,241,241,1,1,1,1,96955,98458,102410,3952
p2,A(Baseline1),19,424,424,1,1,1,1,103547,105051,107322,2271
p2,A(Baseline1),20,131,141,0,1,0,1,108283,109787,114490,4703
p2,A(Baseline1),21,431,431,1,1,1,1,147355,148870,151610,2740
p2,A(Baseline1),22,314,434,0,0,0,1,152571,154075,156562,2487
p2,A(Baseline1),23,412,312,0,0,1,1,157323,158827,163498,4671
p2,A(Baseline1),24,214,214,1,1,1,1,164387,165890,168402,2512
p2,A(Baseline1),25,123,323,0,0,1,1,169194,170698,172731,2033
p2,A(Baseline1),26,134,134,1,1,1,1,173490,174994,177258,2264
p2,A(Baseline1),27,312,412,0,0,1,1,177980,179483,182058,2575
p2,A(Baseline1),28,232,231,0,1,1,0,182739,184243,186210,1967
p2,A(Baseline1),29,412,412,1,1,1,1,186947,188450,191250,2800
p2,A(Baseline1),30,412,412,1,1,1,1,191979,193482,196194,2712
p2,A(Baseline1),31,231,231,1,1,1,1,197340,198842,200483,1641
p2,A(Baseline1),32,142,142,1,1,1,1,201187,202690,204858,2168
p2,A(Baseline1),33,132,342,0,0,0,1,205987,207490,213123,5633
p2,A(Baseline1),34,421,423,0,1,1,0,213907,215410,218371,2961
p2,A(Baseline1),35,342,342,1,1,1,1,219123,220626,223642,3016
p2,A(Baseline1),36,214,214,1,1,1,1,224403,225906,228138,2232
p2,A(Baseline1),37,143,343,0,0,1,1,228891,230395,233083,2688
p2,A(Baseline1),38,212,232,0,1,0,1,233763,235267,236994,1727
p2,A(Baseline1),39,432,431,0,1,1,0,238259,239762,241866,2104
p2,A(Baseline1),40,434,343,0,0,0,0,242724,244227,246834,2607
p2,A(Baseline1),41,124,324,0,0,1,1,277770,279278,283226,3948
p2,A(Baseline1),42,212,232,0,1,0,1,284203,285709,287842,2133
p2,A(Baseline1),43,214,234,0,1,0,1,288691,290195,292411,2216
p2,A(Baseline1),44,312,431,0,0,0,0,293563,295066,297370,2304
p2,A(Baseline1),45,231,241,0,1,0,1,298123,299628,303202,3574
p2,A(Baseline1),46,341,341,1,1,1,1,304003,305507,309419,3912
p2,A(Baseline1),47,434,434,1,1,1,1,310188,311691,313627,1936
p2,A(Baseline1),48,213,213,1,1,1,1,314330,315834,317739,1905
p2,A(Baseline1),49,421,421,1,1,1,1,318460,319963,322074,2111
p2,A(Baseline1),50,343,343,1,1,1,1,322771,324274,327522,3248
p2,A(Baseline1),51,342,342,1,1,1,1,328347,329851,332610,2759
p2,A(Baseline1),52,213,214,0,1,1,0,333451,334954,336818,1864
p2,A(Baseline1),53,123,324,0,0,1,0,337564,339066,341434,2368
p2,A(Baseline1),54,232,242,0,1,0,1,342131,343634,346322,2688
p2,A(Baseline1),55,324,424,0,0,1,1,347203,348706,351234,2528
p2,A(Baseline1),56,124,124,1,1,1,1,351955,353459,356474,3015
p2,A(Baseline1),57,141,143,0,1,1,0,357275,358778,361050,2272
p2,A(Baseline1),58,134,342,0,0,0,0,361699,363202,366410,3208
p2,A(Baseline1),59,131,141,0,1,0,1,367188,368691,372370,3679
p2,A(Baseline1),60,421,423,0,1,1,0,373659,375162,378010,2848
p2,A(Baseline1),61,212,124,0,0,0,0,409931,411440,413954,2514
p2,A(Baseline1),62,413,414,0,1,1,0,414596,416107,418995,2888
p2,A(Baseline1),63,243,243,1,1,1,1,419603,421106,423275,2169
p2,A(Baseline1),64,234,242,0,1,0,0,424394,425898,427915,2017
p2,A(Baseline1),65,121,121,1,1,1,1,428666,430170,432034,1864
p2,A(Baseline1),66,323,424,0,0,1,0,432787,434290,439011,4721
p2,A(Baseline1),67,423,423,1,1,1,1,439819,441323,443027,1704
p2,A(Baseline1),68,342,432,0,0,0,1,443987,445489,447834,2345
p2,A(Baseline1),69,232,242,0,1,0,1,448571,450074,453122,3048
p2,A(Baseline1),70,213,214,0,1,1,0,454259,455762,457492,1730
p2,A(Baseline1),71,124,124,1,1,1,1,458219,459722,463642,3920
p2,A(Baseline1),72,143,343,0,0,1,1,464428,465932,468442,2510
p2,A(Baseline1),73,234,242,0,1,0,0,469179,470683,473811,3128
p2,A(Baseline1),74,432,412,0,1,0,1,474939,476442,478906,2464
p2,A(Baseline1),75,123,323,0,0,1,1,479691,481194,483059,1865
p2,A(Baseline1),76,424,424,1,1,1,1,483731,485235,488338,3103
p2,A(Baseline1),77,321,421,0,0,1,1,489003,490506,492282,1776
p2,A(Baseline1),78,234,242,0,1,0,0,493090,494594,496732,2138
p2,A(Baseline1),79,132,142,0,1,0,1,497506,499010,500970,1960
p2,A(Baseline1),80,341,421,0,0,0,1,502267,503771,506530,2759
p2,A(Baseline1),81,324,424,0,0,1,1,539578,541092,542770,1678
p2,A(Baseline1),82,243,243,1,1,1,1,543523,545025,547010,1985
p2,A(Baseline1),83,242,143,0,0,1,0,547778,549282,551435,2153
p2,A(Baseline1),84,414,414,1,1,1,1,552075,553579,555339,1760
p2,A(Baseline1),85,413,414,0,1,1,0,556051,557554,560234,2680
p2,A(Baseline1),86,313,434,0,0,0,0,561011,562514,565603,3089
p2,A(Baseline1),87,143,343,0,0,1,1,566364,567867,570066,2199
p2,A(Baseline1),88,413,143,0,0,0,1,570755,572258,574371,2113
p2,A(Baseline1),89,343,343,1,1,1,1,575083,576586,579209,2623
p2,A(Baseline1),90,231,241,0,1,0,1,579916,581420,583979,2559
p2,A(Baseline1),91,423,424,0,1,1,0,584691,586193,588098,1905
p2,A(Baseline1),92,242,242,1,1,1,1,588898,590403,592618,2215
p2,A(Baseline1),93,121,121,1,1,1,1,593394,594899,596867,1968
p2,A(Baseline1),94,241,241,1,1,1,1,597515,599018,604338,5320
p2,A(Baseline1),95,424,424,1,1,1,1,605011,606514,608531,2017
p2,A(Baseline1),96,242,242,1,1,1,1,609227,610729,613986,3257
p2,A(Baseline1),97,414,412,0,1,1,0,614707,616211,618298,2087
p2,A(Baseline1),98,414,413,0,1,1,0,618963,620467,622066,1599
p2,A(Baseline1),99,132,131,0,1,1,0,622731,624235,627930,3695
p2,A(Baseline1),100,241,243,0,1,1,0,628635,630138,632970,2832
p2,A(Baseline1),101,134,142,0,1,0,0,671771,673281,675970,2689
p2,A(Baseline1),102,142,321,0,0,0,0,676619,678122,681435,3313
p2,A(Baseline1),103,312,412,0,0,1,1,682099,683602,688626,5024
p2,A(Baseline1),104,432,432,1,1,1,1,689275,690778,692818,2040
p2,A(Baseline1),105,321,421,0,0,1,1,693539,695043,696562,1519
p2,A(Baseline1),106,313,414,0,0,1,0,697291,698794,701202,2408
p2,A(Baseline1),107,142,121,0,1,0,0,701883,703387,705362,1975
p2,A(Baseline1),108,431,431,1,1,1,1,706090,707594,709738,2144
