id,cond,trial#,realPattern,userAnswer,correct,c1,c2,c3,playstamp,playendstamp,enterstamp,reactionTime
p3,A(Baseline1),1,214,214,1,1,1,1,4927,6434,10910,4476
p3,A(Baseline1),2,121,323,0,0,1,0,12863,14366,18278,3912
p3,A(Baseline1),3,134,134,1,1,1,1,19231,20735,23206,2471
p3,A(Baseline1),4,231,231,1,1,1,1,24046,25549,27637,2088
p3,A(Baseline1),5,234,241,0,1,0,0,28438,29942,33373,3431
p3,A(Baseline1),6,124,313,0,0,0,0,34414,35918,38086,2168
p3,A(Baseline1),7,312,431,0,0,0,0,38943,40446,44133,3687
p3,A(Baseline1),8,321,421,0,0,1,1,45030,46533,49638,3105
p3,A(Baseline1),9,424,424,1,1,1,1,50591,52094,54374,2280
p3,A(Baseline1),10,242,242,1,1,1,1,55223,56726,58854,2128
p3,A(Baseline1),11,213,213,1,1,1,1,59695,61197,64677,3480
p3,A(Baseline1),12,323,323,1,1,1,1,65750,67254,69502,2248
p3,A(Baseline1),13,242,242,1,1,1,1,70384,71886,74558,2672
p3,A(Baseline1),14,231,231,1,1,1,1,75311,76814,80094,3280
p3,A(Baseline1),15,432,432,1,1,1,1,80927,82430,84509,2079
p3,A(Baseline1),16,243,243,1,1,1,1,85534,87037,90422,3385
p3,A(Baseline1),17,343,341,0,1,1,0,91182,92685,94941,2256
p3,A(Baseline1),18,312,312,1,1,1,1,95879,97383,99862,2479
p3,A(Baseline1),19,121,121,1,1,1,1,100678,102181,105958,3777
p3,A(Baseline1),20,421,421,1,1,1,1,106711,108215,110198,1983
p3,A(Baseline1),21,431,431,1,1,1,1,143775,145281,149638,4357
p3,A(Baseline1),22,421,421,1,1,1,1,150791,152294,155102,2808
p3,A(Baseline1),23,343,424,0,0,0,0,156318,157825,160613,2788
p3,A(Baseline1),24,423,424,0,1,1,0,161663,163166,165686,2520
p3,A(Baseline1),25,232,242,0,1,0,1,166495,167998,170438,2440
p3,A(Baseline1),26,124,323,0,0,1,0,171311,172813,175085,2272
p3,A(Baseline1),27,241,243,0,1,1,0,176015,177518,179614,2096
p3,A(Baseline1),28,412,432,0,1,0,1,180447,181950,184261,2311
p3,A(Baseline1),29,413,323,0,0,0,1,185199,186702,189381,2679
p3,A(Baseline1),30,314,324,0,1,0,1,190134,191639,194989,3350
p3,A(Baseline1),31,141,142,0,1,1,0,195998,197502,201006,3504
p3,A(Baseline1),32,432,431,0,1,1,0,201902,203405,205966,2561
p3,A(Baseline1),33,321,321,1,1,1,1,206822,208325,211445,3120
p3,A(Baseline1),34,232,232,1,1,1,1,212295,213798,216246,2448
p3,A(Baseline1),35,324,314,0,1,0,1,217142,218645,223349,4704
p3,A(Baseline1),36,342,341,0,1,1,0,224134,225637,228006,2369
p3,A(Baseline1),37,324,313,0,1,0,0,228766,230270,232526,2256
p3,A(Baseline1),38,414,412,0,1,1,0,233358,234861,237254,2393
p3,A(Baseline1),39,434,434,1,1,1,1,237999,239502,242133,2631
p3,A(Baseline1),40,212,212,1,1,1,1,243038,244541,247878,3337
p3,A(Baseline1),41,434,434,1,1,1,1,278830,280339,283053,2714
p3,A(Baseline1),42,132,432,0,0,1,1,284078,285582,289534,3952
p3,A(Baseline1),43,132,132,1,1,1,1,290639,292142,295622,3480
p3,A(Baseline1),44,312,412,0,0,1,1,297014,298518,302037,3519
p3,A(Baseline1),45,413,434,0,1,0,0,302847,304349,307870,3521
p3,A(Baseline1),46,323,323,1,1,1,1,308870,310374,313726,3352
p3,A(Baseline1),47,414,414,1,1,1,1,314662,316165,318862,2697
p3,A(Baseline1),48,423,423,1,1,1,1,319847,321350,324437,3087
p3,A(Baseline1),49,413,313,0,0,1,1,325462,326965,331134,4169
p3,A(Baseline1),50,424,423,0,1,1,0,332159,333662,335910,2248
p3,A(Baseline1),51,341,341,1,1,1,1,336743,338246,340710,2464
p3,A(Baseline1),52,143,243,0,0,1,1,341639,343142,345885,2743
p3,A(Baseline1),53,143,424,0,0,0,0,346758,348262,352021,3759
p3,A(Baseline1),54,342,341,0,1,1,0,353151,354658,357485,2827
p3,A(Baseline1),55,143,243,0,0,1,1,358295,359798,362021,2223
p3,A(Baseline1),56,141,242,0,0,1,0,362976,364479,366630,2151
p3,A(Baseline1),57,341,341,1,1,1,1,367767,369271,372886,3615
p3,A(Baseline1),58,323,323,1,1,1,1,373726,375230,377981,2751
p3,A(Baseline1),59,314,314,1,1,1,1,381822,383325,385414,2089
p3,A(Baseline1),60,243,243,1,1,1,1,386159,387663,389654,1991
p3,A(Baseline1),61,234,231,0,1,1,0,420630,422139,425509,3370
p3,A(Baseline1),62,414,434,0,1,0,1,426446,427951,431285,3334
p3,A(Baseline1),63,132,121,0,1,0,0,432279,433782,436061,2279
p3,A(Baseline1),64,431,431,1,1,1,1,436830,438333,441990,3657
p3,A(Baseline1),65,214,214,1,1,1,1,442855,444359,447198,2839
p3,A(Baseline1),66,121,321,0,0,1,1,448110,449613,454270,4657
p3,A(Baseline1),67,131,241,0,0,0,1,457078,458581,460325,1744
p3,A(Baseline1),68,142,241,0,0,1,0,461143,462646,464670,2024
p3,A(Baseline1),69,434,434,1,1,1,1,465455,466959,468637,1678
p3,A(Baseline1),70,214,214,1,1,1,1,469422,470925,475485,4560
p3,A(Baseline1),71,423,423,1,1,1,1,476374,477877,481413,3536
p3,A(Baseline1),72,313,313,1,1,1,1,482422,483925,486670,2745
p3,A(Baseline1),73,241,241,1,1,1,1,487582,489086,491278,2192
p3,A(Baseline1),74,321,321,1,1,1,1,492182,493686,496510,2824
p3,A(Baseline1),75,123,423,0,0,1,1,497391,498894,501038,2144
p3,A(Baseline1),76,131,132,0,1,1,0,501792,503296,508078,4782
p3,A(Baseline1),77,432,142,0,0,0,1,509110,510613,516469,5856
p3,A(Baseline1),78,412,412,1,1,1,1,517294,518798,521205,2407
p3,A(Baseline1),79,142,342,0,0,1,1,522134,523637,526438,2801
p3,A(Baseline1),80,124,124,1,1,1,1,527342,528845,533206,4361
p3,A(Baseline1),81,341,321,0,1,0,1,578712,580220,583205,2985
p3,A(Baseline1),82,424,424,1,1,1,1,584262,585768,588830,3062
p3,A(Baseline1),83,241,243,0,1,1,0,589687,591191,592909,1718
p3,A(Baseline1),84,141,121,0,1,0,1,593727,595230,597286,2056
p3,A(Baseline1),85,213,213,1,1,1,1,598055,599558,601317,1759
p3,A(Baseline1),86,421,421,1,1,1,1,602102,603605,606213,2608
p3,A(Baseline1),87,134,134,1,1,1,1,606974,608478,610749,2271
p3,A(Baseline1),88,213,214,0,1,1,0,611495,613001,615317,2316
p3,A(Baseline1),89,412,412,1,1,1,1,616110,617616,620117,2501
p3,A(Baseline1),90,243,243,1,1,1,1,621230,622733,624973,2240
p3,A(Baseline1),91,212,212,1,1,1,1,625870,627373,631973,4600
p3,A(Baseline1),92,212,212,1,1,1,1,632942,634445,640830,6385
p3,A(Baseline1),93,134,132,0,1,1,0,641654,643158,645701,2543
p3,A(Baseline1),94,123,123,1,1,1,1,646743,648246,651197,2951
p3,A(Baseline1),95,234,241,0,1,0,0,652134,653637,657118,3481
p3,A(Baseline1),96,431,431,1,1,1,1,658007,659510,661757,2247
p3,A(Baseline1),97,343,343,1,1,1,1,662566,664069,666573,2504
p3,A(Baseline1),98,131,131,1,1,1,1,667454,668957,672654,3697
p3,A(Baseline1),99,142,142,1,1,1,1,673846,675350,678606,3256
p3,A(Baseline1),100,314,314,1,1,1,1,679559,681062,683093,2031
p3,A(Baseline1),101,324,324,1,1,1,1,714414,715922,718438,2516
p3,A(Baseline1),102,313,313,1,1,1,1,719382,720892,723893,3001
p3,A(Baseline1),103,313,313,1,1,1,1,724782,726285,728845,2560
p3,A(Baseline1),104,231,131,0,0,1,1,729790,731293,734085,2792
p3,A(Baseline1),105,342,432,0,0,0,1,734822,736326,739821,3495
p3,A(Baseline1),106,123,323,0,0,1,1,740639,742142,745549,3407
p3,A(Baseline1),107,242,242,1,1,1,1,746486,747990,750934,2944
p3,A(Baseline1),108,232,232,1,1,1,1,751862,753365,756278,2913
