id,cond,trial#,realPattern,userAnswer,correct,c1,c2,c3,playstamp,playendstamp,enterstamp,reactionTime
p7,B(Approach),1,432,432,1,1,1,1,4534,6044,8357,2313
p7,B(Approach),2,232,232,1,1,1,1,9294,10797,13397,2600
p7,B(Approach),3,214,212,0,1,1,0,14845,16349,19421,3072
p7,B(Approach),4,132,132,1,1,1,1,20134,21637,24957,3320
p7,B(Approach),5,234,232,0,1,1,0,25742,27245,30510,3265
p7,B(Approach),6,123,131,0,1,0,0,31262,32765,36253,3488
p7,B(Approach),7,234,234,1,1,1,1,36942,38445,42109,3664
p7,B(Approach),8,412,412,1,1,1,1,43118,44621,47437,2816
p7,B(Approach),9,243,234,0,1,0,0,48279,49782,54485,4703
p7,B(Approach),10,323,323,1,1,1,1,55621,57126,59861,2735
p7,B(Approach),11,324,313,0,1,0,0,60622,62126,69565,7439
p7,B(Approach),12,432,131,0,0,1,0,70349,71852,74045,2193
p7,B(Approach),13,343,313,0,1,0,1,74829,76332,78733,2401
p7,B(Approach),14,243,234,0,1,0,0,79558,81061,86741,5680
p7,B(Approach),15,232,232,1,1,1,1,87478,88981,91533,2552
p7,B(Approach),16,121,121,1,1,1,1,92230,93733,96844,3111
p7,B(Approach),17,431,431,1,1,1,1,97606,99109,102173,3064
p7,B(Approach),18,234,232,0,1,1,0,102999,104503,107364,2861
p7,B(Approach),19,212,212,1,1,1,1,108175,109677,112597,2920
p7,B(Approach),20,341,342,0,1,1,0,113285,114788,118397,3609
p7,B(Approach),21,131,412,0,0,0,0,150902,152408,163372,10964
p7,B(Approach),22,341,342,0,1,1,0,164101,165605,173804,8199
p7,B(Approach),23,342,342,1,1,1,1,174574,176078,181372,5294
p7,B(Approach),24,231,232,0,1,1,0,182069,183575,188036,4461
p7,B(Approach),25,231,231,1,1,1,1,188893,190397,192373,1976
p7,B(Approach),26,431,431,1,1,1,1,193046,194551,196884,2333
p7,B(Approach),27,312,312,1,1,1,1,197781,199285,202285,3000
p7,B(Approach),28,423,424,0,1,1,0,203142,204646,208709,4063
p7,B(Approach),29,431,431,1,1,1,1,209460,210964,213316,2352
p7,B(Approach),30,242,242,1,1,1,1,214062,215566,220148,4582
p7,B(Approach),31,121,121,1,1,1,1,222158,223660,226492,2832
p7,B(Approach),32,243,243,1,1,1,1,227237,228740,231132,2392
p7,B(Approach),33,314,313,0,1,1,0,231909,233412,235973,2561
p7,B(Approach),34,412,414,0,1,1,0,236853,238356,242612,4256
p7,B(Approach),35,214,212,0,1,1,0,243637,245141,247684,2543
p7,B(Approach),36,142,121,0,1,0,0,248461,249965,253116,3151
p7,B(Approach),37,214,212,0,1,1,0,253877,255381,258020,2639
p7,B(Approach),38,124,121,0,1,1,0,258821,260325,263316,2991
p7,B(Approach),39,421,413,0,1,0,0,264109,265612,268597,2985
p7,B(Approach),40,432,432,1,1,1,1,269373,270876,274660,3784
p7,B(Approach),41,321,321,1,1,1,1,309173,310682,313804,3122
p7,B(Approach),42,142,121,0,1,0,0,314574,316085,319237,3152
p7,B(Approach),43,414,424,0,1,0,1,319941,321444,328092,6648
p7,B(Approach),44,213,243,0,1,0,1,329573,331076,337132,6056
p7,B(Approach),45,342,342,1,1,1,1,343854,345358,347964,2606
p7,B(Approach),46,424,424,1,1,1,1,348765,350268,354132,3864
p7,B(Approach),47,312,312,1,1,1,1,355077,356580,372236,15656
p7,B(Approach),48,141,232,0,0,0,0,373565,375072,416796,41724
p7,B(Approach),49,313,313,1,1,1,1,417717,419239,421508,2269
p7,B(Approach),50,414,414,1,1,1,1,422333,423840,426636,2796
p7,B(Approach),51,434,434,1,1,1,1,427374,428877,431012,2135
p7,B(Approach),52,134,134,1,1,1,1,431797,433300,436028,2728
p7,B(Approach),53,123,234,0,0,0,0,436780,438284,446179,7895
p7,B(Approach),54,242,242,1,1,1,1,446933,448436,451860,3424
p7,B(Approach),55,413,431,0,1,0,0,452565,454068,458323,4255
p7,B(Approach),56,124,124,1,1,1,1,459004,460509,463884,3375
p7,B(Approach),57,342,312,0,1,0,1,464637,466141,470116,3975
p7,B(Approach),58,143,143,1,1,1,1,470892,472396,475147,2751
p7,B(Approach),59,213,213,1,1,1,1,476149,477652,482180,4528
p7,B(Approach),60,241,243,0,1,1,0,482980,484483,486036,1553
p7,B(Approach),61,314,312,0,1,1,0,520372,521879,524845,2966
p7,B(Approach),62,423,424,0,1,1,0,525525,527028,529284,2256
p7,B(Approach),63,321,313,0,1,0,0,529948,531452,534828,3376
p7,B(Approach),64,424,424,1,1,1,1,535541,537044,539764,2720
p7,B(Approach),65,242,242,1,1,1,1,540484,541988,543860,1872
p7,B(Approach),66,131,141,0,1,0,1,544517,546020,548075,2055
p7,B(Approach),67,412,414,0,1,1,0,548925,550428,552324,1896
p7,B(Approach),68,213,214,0,1,1,0,553037,554540,556540,2000
p7,B(Approach),69,323,313,0,1,0,1,557237,558740,564500,5760
p7,B(Approach),70,434,432,0,1,1,0,565581,567084,577028,9944
p7,B(Approach),71,212,231,0,1,0,0,578044,579549,581595,2046
p7,B(Approach),72,141,141,1,1,1,1,582828,584336,587421,3085
p7,B(Approach),73,314,312,0,1,1,0,588188,589694,591364,1670
p7,B(Approach),74,424,414,0,1,0,1,592149,593653,596124,2471
p7,B(Approach),75,324,313,0,1,0,0,596892,598395,600323,1928
p7,B(Approach),76,212,131,0,0,0,0,601484,602987,605740,2753
p7,B(Approach),77,143,123,0,1,0,1,606644,608147,610539,2392
p7,B(Approach),78,231,231,1,1,1,1,611341,612844,614644,1800
p7,B(Approach),79,143,143,1,1,1,1,615325,616828,619548,2720
p7,B(Approach),80,313,313,1,1,1,1,620253,621756,622940,1184
p7,B(Approach),81,134,132,0,1,1,0,654324,655834,659363,3529
p7,B(Approach),82,141,143,0,1,1,0,660132,661635,664275,2640
p7,B(Approach),83,132,131,0,1,1,0,665013,666517,668308,1791
p7,B(Approach),84,421,413,0,1,0,0,669021,670525,672708,2183
p7,B(Approach),85,343,313,0,1,0,1,673484,674988,676995,2007
p7,B(Approach),86,321,423,0,0,1,0,677693,679196,682187,2991
p7,B(Approach),87,121,323,0,0,1,0,682900,684404,689355,4951
p7,B(Approach),88,241,242,0,1,1,0,690485,691988,695827,3839
p7,B(Approach),89,421,423,0,1,1,0,696661,698164,703836,5672
p7,B(Approach),90,413,414,0,1,1,0,704596,706100,709259,3159
p7,B(Approach),91,232,232,1,1,1,1,710260,711763,714619,2856
p7,B(Approach),92,313,424,0,0,0,0,715347,716851,718963,2112
p7,B(Approach),93,134,143,0,1,0,0,719685,721189,723580,2391
p7,B(Approach),94,414,212,0,0,1,0,724348,725851,728667,2816
p7,B(Approach),95,123,123,1,1,1,1,729372,730875,732956,2081
p7,B(Approach),96,341,313,0,1,0,0,733676,735180,737348,2168
p7,B(Approach),97,434,434,1,1,1,1,738092,739596,741764,2168
p7,B(Approach),98,131,141,0,1,0,1,742636,744139,747019,2880
p7,B(Approach),99,413,414,0,1,1,0,747756,749259,752003,2744
p7,B(Approach),100,241,243,0,1,1,0,753052,754556,756475,1919
p7,B(Approach),101,324,323,0,1,1,0,787556,789068,793451,4383
p7,B(Approach),102,343,424,0,0,0,0,801876,803383,805892,2509
p7,B(Approach),103,312,321,0,1,0,0,806652,808158,811139,2981
p7,B(Approach),104,423,424,0,1,1,0,811957,813460,817275,3815
p7,B(Approach),105,142,142,1,1,1,1,818076,819580,822371,2791
p7,B(Approach),106,323,313,0,1,0,1,823516,825019,827835,2816
p7,B(Approach),107,124,121,0,1,1,0,829148,830652,835003,4351
p7,B(Approach),108,132,131,0,1,1,0,835853,837356,840011,2655
