"id","cond","trial.","realPattern","userAnswer","correct","playstamp","playendstamp","enterstamp","reaction_time","diffCount_1","diffCount_2","diffCount_3"
"p10","Baseline1",1,341,341,1,5632,7135,9383,2248,0,0,0
"p10","Baseline1",2,434,434,1,10311,11814,14134,2320,0,0,0
"p10","Baseline1",3,343,343,1,15023,16526,18574,2048,0,0,0
"p10","Baseline1",4,242,242,1,19615,21118,23126,2008,0,0,0
"p10","Baseline1",5,231,231,1,24007,25511,27879,2368,0,0,0
"p10","Baseline1",6,214,214,1,28791,30294,32638,2344,0,0,0
"p10","Baseline1",7,142,142,1,33527,35031,37678,2647,0,0,0
"p10","Baseline1",8,312,312,1,38559,40071,43334,3263,0,0,0
"p10","Baseline1",9,241,241,1,44150,45654,47903,2249,0,0,0
"p10","Baseline1",10,134,134,1,48855,50358,52798,2440,0,0,0
"p10","Baseline1",11,413,413,1,53726,55230,57422,2192,0,0,0
"p10","Baseline1",12,232,234,0,58687,60191,62526,2335,1,0,0
"p10","Baseline1",13,423,423,1,63440,64943,67287,2344,0,0,0
"p10","Baseline1",14,431,431,1,68343,69847,72350,2503,0,0,0
"p10","Baseline1",15,432,412,0,73303,74807,78591,3784,1,0,0
"p10","Baseline1",16,414,414,1,79544,81046,83598,2552,0,0,0
"p10","Baseline1",17,213,213,1,84455,85959,89038,3079,0,0,0
"p10","Baseline1",18,231,231,1,90063,91567,93687,2120,0,0,0
"p10","Baseline1",19,234,234,1,94575,96078,98350,2272,0,0,0
"p10","Baseline1",20,131,131,1,99295,100798,103366,2568,0,0,0
"p10","Baseline1",21,121,143,0,135839,137349,140118,2769,0,1,0
"p10","Baseline1",22,434,434,1,140975,142480,144783,2303,0,0,0
"p10","Baseline1",23,141,141,1,145606,147110,149054,1944,0,0,0
"p10","Baseline1",24,141,141,1,149880,151382,154398,3016,0,0,0
"p10","Baseline1",25,132,134,0,155263,156766,159118,2352,1,0,0
"p10","Baseline1",26,431,431,1,159911,161415,163598,2183,0,0,0
"p10","Baseline1",27,243,241,0,164431,165935,168582,2647,1,0,0
"p10","Baseline1",28,232,234,0,169407,170912,174278,3366,1,0,0
"p10","Baseline1",29,414,414,1,175048,176551,178870,2319,0,0,0
"p10","Baseline1",30,143,143,1,179687,181190,183398,2208,0,0,0
"p10","Baseline1",31,214,214,1,184247,185750,188798,3048,0,0,0
"p10","Baseline1",32,341,341,1,189720,191223,193759,2536,0,0,0
"p10","Baseline1",33,421,421,1,194607,196111,198142,2031,0,0,0
"p10","Baseline1",34,413,413,1,198975,200479,203278,2799,0,0,0
"p10","Baseline1",35,314,314,1,204136,205639,207726,2087,0,0,0
"p10","Baseline1",36,314,314,1,208622,210127,212814,2687,0,0,0
"p10","Baseline1",37,143,143,1,213775,215278,218062,2784,0,0,0
"p10","Baseline1",38,143,143,1,218935,220439,222863,2424,0,0,0
"p10","Baseline1",39,434,414,0,223798,225302,227887,2585,1,0,0
"p10","Baseline1",40,131,131,1,228743,230247,232639,2392,0,0,0
"p10","Baseline1",41,323,343,0,264175,265681,268423,2742,1,0,0
"p10","Baseline1",42,413,413,1,269247,270751,272943,2192,0,0,0
"p10","Baseline1",43,131,131,1,273775,275283,277607,2324,0,0,0
"p10","Baseline1",44,312,314,0,278399,279903,281951,2048,1,0,0
"p10","Baseline1",45,121,141,0,282775,284278,286790,2512,1,0,0
"p10","Baseline1",46,342,341,0,287639,289142,291798,2656,1,0,0
"p10","Baseline1",47,312,314,0,292568,294071,296583,2512,1,0,0
"p10","Baseline1",48,124,143,0,297407,298911,302142,3231,0,1,0
"p10","Baseline1",49,123,143,0,302990,304494,306862,2368,1,0,0
"p10","Baseline1",50,412,414,0,307895,309398,312374,2976,1,0,0
"p10","Baseline1",51,421,421,1,313359,314863,317767,2904,0,0,0
"p10","Baseline1",52,212,212,1,318631,320135,322934,2799,0,0,0
"p10","Baseline1",53,323,343,0,323799,325302,327911,2609,1,0,0
"p10","Baseline1",54,142,142,1,328784,330287,333270,2983,0,0,0
"p10","Baseline1",55,323,343,0,334192,335695,337927,2232,1,0,0
"p10","Baseline1",56,124,143,0,338728,340231,342710,2479,0,1,0
"p10","Baseline1",57,213,413,0,343615,345118,348294,3176,1,0,0
"p10","Baseline1",58,234,234,1,349247,350750,354327,3577,0,0,0
"p10","Baseline1",59,141,141,1,355359,356867,359654,2787,0,0,0
"p10","Baseline1",60,424,424,1,360663,362166,365206,3040,0,0,0
"p10","Baseline1",61,342,342,1,396543,398049,400959,2910,0,0,0
"p10","Baseline1",62,242,242,1,402063,403566,406007,2441,0,0,0
"p10","Baseline1",63,142,142,1,406903,408412,411198,2786,0,0,0
"p10","Baseline1",64,243,243,1,412103,413606,415478,1872,0,0,0
"p10","Baseline1",65,134,134,1,416319,417823,420646,2823,0,0,0
"p10","Baseline1",66,241,241,1,421503,423007,425462,2455,0,0,0
"p10","Baseline1",67,432,432,1,426359,427863,430623,2760,0,0,0
"p10","Baseline1",68,423,423,1,431463,432966,435655,2689,0,0,0
"p10","Baseline1",69,313,313,1,436583,438087,441054,2967,0,0,0
"p10","Baseline1",70,243,241,0,442008,443510,445831,2321,1,0,0
"p10","Baseline1",71,421,421,1,446751,448256,450798,2542,0,0,0
"p10","Baseline1",72,313,313,1,451808,453313,456222,2909,0,0,0
"p10","Baseline1",73,234,234,1,457151,458654,461335,2681,0,0,0
"p10","Baseline1",74,132,132,1,462368,463871,466071,2200,0,0,0
"p10","Baseline1",75,424,424,1,467031,468538,471286,2748,0,0,0
"p10","Baseline1",76,424,424,1,472255,473773,476447,2674,0,0,0
"p10","Baseline1",77,212,212,1,477591,479094,481294,2200,0,0,0
"p10","Baseline1",78,123,121,0,482255,483758,494039,10281,1,0,0
"p10","Baseline1",79,241,241,1,495007,496510,498743,2233,0,0,0
"p10","Baseline1",80,324,324,1,499903,501412,504278,2866,0,0,0
"p10","Baseline1",81,214,214,1,535943,537455,540911,3456,0,0,0
"p10","Baseline1",82,412,414,0,541815,543320,545831,2511,1,0,0
"p10","Baseline1",83,343,343,1,546751,548255,550326,2071,0,0,0
"p10","Baseline1",84,321,341,0,551167,552671,554910,2239,1,0,0
"p10","Baseline1",85,431,431,1,555695,557199,559214,2015,0,0,0
"p10","Baseline1",86,414,414,1,560039,561543,563814,2271,0,0,0
"p10","Baseline1",87,341,341,1,564719,566223,568462,2239,0,0,0
"p10","Baseline1",88,342,342,1,569359,570863,573438,2575,0,0,0
"p10","Baseline1",89,212,414,0,574287,575790,578351,2561,0,1,0
"p10","Baseline1",90,123,143,0,579231,580735,583222,2487,1,0,0
"p10","Baseline1",91,213,213,1,584104,585607,588750,3143,0,0,0
"p10","Baseline1",92,232,434,0,589623,591126,593367,2241,0,1,0
"p10","Baseline1",93,324,342,0,594254,595758,598271,2513,0,1,0
"p10","Baseline1",94,134,134,1,599159,600663,603598,2935,0,0,0
"p10","Baseline1",95,231,231,1,604471,605974,608399,2425,0,0,0
"p10","Baseline1",96,343,343,1,609472,610975,613350,2375,0,0,0
"p10","Baseline1",97,132,134,0,614311,615814,618358,2544,1,0,0
"p10","Baseline1",98,432,434,0,619216,620719,623590,2871,1,0,0
"p10","Baseline1",99,321,341,0,624543,626046,628086,2040,1,0,0
"p10","Baseline1",100,313,313,1,629247,630750,633558,2808,0,0,0
"p10","Baseline1",101,412,414,0,666847,668353,671358,3005,1,0,0
"p10","Baseline1",102,321,341,0,672328,673832,676686,2854,1,0,0
"p10","Baseline1",103,314,314,1,677503,679007,681454,2447,0,0,0
"p10","Baseline1",104,324,324,1,682343,683846,686062,2216,0,0,0
"p10","Baseline1",105,423,421,0,686935,688438,691302,2864,1,0,0
"p10","Baseline1",106,242,242,1,692175,693678,696031,2353,0,0,0
"p10","Baseline1",107,121,121,1,696902,698406,700599,2193,0,0,0
"p10","Baseline1",108,124,124,1,701511,703015,705846,2831,0,0,0
