"id","cond","trial.","realPattern","userAnswer","correct","playstamp","playendstamp","enterstamp","reaction_time","diffCount_1","diffCount_2","diffCount_3"
"p12","Baseline2",1,213,213,1,3777,5281,6976,1695,0,0,0
"p12","Baseline2",2,312,314,0,7992,9496,11496,2000,1,0,0
"p12","Baseline2",3,132,132,1,12288,13792,16088,2296,0,0,0
"p12","Baseline2",4,232,232,1,16801,18305,20792,2487,0,0,0
"p12","Baseline2",5,424,424,1,21745,23248,25320,2072,0,0,0
"p12","Baseline2",6,232,232,1,26041,27545,30432,2887,0,0,0
"p12","Baseline2",7,141,141,1,31240,32743,34560,1817,0,0,0
"p12","Baseline2",8,313,313,1,35272,36776,38616,1840,0,0,0
"p12","Baseline2",9,242,242,1,39329,40832,43112,2280,0,0,0
"p12","Baseline2",10,121,121,1,43817,45319,47584,2265,0,0,0
"p12","Baseline2",11,132,132,1,48433,49937,53496,3559,0,0,0
"p12","Baseline2",12,342,342,1,54817,56321,58903,2582,0,0,0
"p12","Baseline2",13,321,321,1,59720,61223,63769,2546,0,0,0
"p12","Baseline2",14,123,123,1,64536,66040,68112,2072,0,0,0
"p12","Baseline2",15,421,421,1,68912,70416,72632,2216,0,0,0
"p12","Baseline2",16,213,213,1,73346,74849,76368,1519,0,0,0
"p12","Baseline2",17,241,241,1,77073,78577,80400,1823,0,0,0
"p12","Baseline2",18,412,412,1,81041,82545,85128,2583,0,0,0
"p12","Baseline2",19,312,314,0,85897,87400,89232,1832,1,0,0
"p12","Baseline2",20,341,341,1,89873,91376,93336,1960,0,0,0
"p12","Baseline2",21,141,141,1,124160,125667,128640,2973,0,0,0
"p12","Baseline2",22,231,214,0,129385,130892,134536,3644,0,1,0
"p12","Baseline2",23,414,414,1,136504,138007,140544,2537,0,0,0
"p12","Baseline2",24,431,431,1,141265,142769,144616,1847,0,0,0
"p12","Baseline2",25,324,124,0,145352,146856,152057,5201,1,0,0
"p12","Baseline2",26,432,432,1,152905,154408,157625,3217,0,0,0
"p12","Baseline2",27,212,234,0,158305,159808,163057,3249,0,1,0
"p12","Baseline2",28,234,234,1,164280,165783,168009,2226,0,0,0
"p12","Baseline2",29,313,313,1,168697,170201,172008,1807,0,0,0
"p12","Baseline2",30,131,131,1,172721,174224,176065,1841,0,0,0
"p12","Baseline2",31,321,321,1,176745,178248,180929,2681,0,0,0
"p12","Baseline2",32,314,314,1,181593,183096,185168,2072,0,0,0
"p12","Baseline2",33,421,421,1,186048,187551,190184,2633,0,0,0
"p12","Baseline2",34,342,142,0,190897,192401,194456,2055,1,0,0
"p12","Baseline2",35,124,124,1,195193,196697,199216,2519,0,0,0
"p12","Baseline2",36,243,243,1,199937,201441,204040,2599,0,0,0
"p12","Baseline2",37,232,232,1,204753,206257,208952,2695,0,0,0
"p12","Baseline2",38,314,314,1,209713,211216,213696,2480,0,0,0
"p12","Baseline2",39,434,434,1,214457,215960,218561,2601,0,0,0
"p12","Baseline2",40,123,143,0,219433,220936,223120,2184,1,0,0
"p12","Baseline2",41,242,242,1,254001,255511,257608,2097,0,0,0
"p12","Baseline2",42,324,124,0,258288,259791,261656,1865,1,0,0
"p12","Baseline2",43,212,214,0,262321,263824,265752,1928,1,0,0
"p12","Baseline2",44,323,323,1,266409,267912,270272,2360,0,0,0
"p12","Baseline2",45,142,141,0,270889,272393,276592,4199,1,0,0
"p12","Baseline2",46,412,414,0,277304,278808,281208,2400,1,0,0
"p12","Baseline2",47,234,234,1,281968,283475,285719,2244,0,0,0
"p12","Baseline2",48,414,414,1,286369,287873,290400,2527,0,0,0
"p12","Baseline2",49,323,323,1,291105,292611,294817,2206,0,0,0
"p12","Baseline2",50,413,413,1,295465,296969,298952,1983,0,0,0
"p12","Baseline2",51,134,234,0,299672,301176,303424,2248,1,0,0
"p12","Baseline2",52,134,134,1,304144,305648,308016,2368,0,0,0
"p12","Baseline2",53,242,242,1,308673,310176,312384,2208,0,0,0
"p12","Baseline2",54,431,431,1,313040,314544,316353,1809,0,0,0
"p12","Baseline2",55,423,423,1,317009,318512,320617,2105,0,0,0
"p12","Baseline2",56,241,243,0,321617,323121,325096,1975,1,0,0
"p12","Baseline2",57,423,423,1,325760,327263,329688,2425,0,0,0
"p12","Baseline2",58,131,131,1,330353,331857,333784,1927,0,0,0
"p12","Baseline2",59,313,313,1,334536,336040,338001,1961,0,0,0
"p12","Baseline2",60,323,321,0,338665,340168,342401,2233,1,0,0
"p12","Baseline2",61,341,341,1,375960,377467,380152,2685,0,0,0
"p12","Baseline2",62,124,124,1,380857,382360,384537,2177,0,0,0
"p12","Baseline2",63,214,214,1,385241,386747,388488,1741,0,0,0
"p12","Baseline2",64,432,432,1,389145,390649,392385,1736,0,0,0
"p12","Baseline2",65,343,343,1,393025,394528,396224,1696,0,0,0
"p12","Baseline2",66,123,143,0,396889,398392,400248,1856,1,0,0
"p12","Baseline2",67,342,341,0,400889,402393,404304,1911,1,0,0
"p12","Baseline2",68,121,121,1,404969,406474,408784,2310,0,0,0
"p12","Baseline2",69,434,434,1,409385,410889,412864,1975,0,0,0
"p12","Baseline2",70,121,121,1,413545,415048,419625,4577,0,0,0
"p12","Baseline2",71,234,234,1,420288,421791,423880,2089,0,0,0
"p12","Baseline2",72,314,314,1,426122,427624,429360,1736,0,0,0
"p12","Baseline2",73,431,431,1,430049,431552,433088,1536,0,0,0
"p12","Baseline2",74,423,423,1,433745,435248,436856,1608,0,0,0
"p12","Baseline2",75,231,231,1,437537,439045,441208,2163,0,0,0
"p12","Baseline2",76,142,141,0,441864,443368,446128,2760,1,0,0
"p12","Baseline2",77,132,132,1,446784,448288,449536,1248,0,0,0
"p12","Baseline2",78,124,124,1,450193,451696,453424,1728,0,0,0
"p12","Baseline2",79,243,243,1,454064,455568,457680,2112,0,0,0
"p12","Baseline2",80,341,341,1,458457,459959,461968,2009,0,0,0
"p12","Baseline2",81,212,214,0,493673,495181,497808,2627,1,0,0
"p12","Baseline2",82,312,312,1,498753,500256,502280,2024,0,0,0
"p12","Baseline2",83,143,343,0,503001,504503,506112,1609,1,0,0
"p12","Baseline2",84,131,131,1,506801,508303,511192,2889,0,0,0
"p12","Baseline2",85,432,434,0,511880,513383,515552,2169,1,0,0
"p12","Baseline2",86,424,414,0,516233,517737,519872,2135,1,0,0
"p12","Baseline2",87,424,413,0,520568,522072,524600,2528,0,1,0
"p12","Baseline2",88,343,343,1,525256,526760,528360,1600,0,0,0
"p12","Baseline2",89,413,413,1,529457,530960,532944,1984,0,0,0
"p12","Baseline2",90,214,314,0,533617,535120,537160,2040,1,0,0
"p12","Baseline2",91,412,434,0,537848,539352,540968,1616,0,1,0
"p12","Baseline2",92,243,243,1,541641,543145,545032,1887,0,0,0
"p12","Baseline2",93,141,143,0,547529,549033,551472,2439,1,0,0
"p12","Baseline2",94,434,434,1,552217,553720,555841,2121,0,0,0
"p12","Baseline2",95,414,414,1,556569,558072,559688,1616,0,0,0
"p12","Baseline2",96,321,343,0,560457,561960,563776,1816,0,1,0
"p12","Baseline2",97,421,413,0,564449,565952,568576,2624,0,1,0
"p12","Baseline2",98,324,343,0,569545,571049,573280,2231,0,1,0
"p12","Baseline2",99,241,243,0,574001,575505,577488,1983,1,0,0
"p12","Baseline2",100,214,134,0,578168,579672,581752,2080,0,1,0
"p12","Baseline2",101,143,143,1,612672,614178,616305,2127,0,0,0
"p12","Baseline2",102,413,413,1,616945,618451,620672,2221,0,0,0
"p12","Baseline2",103,213,213,1,621312,622816,624552,1736,0,0,0
"p12","Baseline2",104,142,142,1,625344,626848,628808,1960,0,0,0
"p12","Baseline2",105,134,134,1,629465,630968,632833,1865,0,0,0
"p12","Baseline2",106,231,231,1,633488,634992,636872,1880,0,0,0
"p12","Baseline2",107,343,343,1,637553,639056,640832,1776,0,0,0
"p12","Baseline2",108,143,143,1,641529,643033,644776,1743,0,0,0
