"id","cond","trial.","realPattern","userAnswer","correct","playstamp","playendstamp","enterstamp","reaction_time","diffCount_1","diffCount_2","diffCount_3"
"p2","Baseline1",1,421,421,1,3164,4667,7051,2384,0,0,0
"p2","Baseline1",2,124,143,0,7812,9315,12611,3296,0,1,0
"p2","Baseline1",3,142,142,1,13508,15011,17251,2240,0,0,0
"p2","Baseline1",4,412,414,0,18086,19591,23843,4252,1,0,0
"p2","Baseline1",5,121,141,0,24884,26388,28331,1943,1,0,0
"p2","Baseline1",6,424,424,1,29188,30692,33395,2703,0,0,0
"p2","Baseline1",7,314,124,0,34244,35748,38019,2271,0,1,0
"p2","Baseline1",8,242,424,0,39005,40508,42675,2167,0,0,1
"p2","Baseline1",9,423,423,1,43571,45075,47292,2217,0,0,0
"p2","Baseline1",10,241,421,0,48140,49643,51731,2088,0,1,0
"p2","Baseline1",11,412,414,0,52612,54115,55891,1776,1,0,0
"p2","Baseline1",12,232,434,0,56723,58226,59907,1681,0,1,0
"p2","Baseline1",13,242,242,1,60556,62059,64083,2024,0,0,0
"p2","Baseline1",14,312,314,0,65139,66643,68484,1841,1,0,0
"p2","Baseline1",15,413,413,1,69187,70692,72228,1536,0,0,0
"p2","Baseline1",16,214,434,0,72901,74405,75939,1534,0,1,0
"p2","Baseline1",17,342,342,1,76700,78203,80403,2200,0,0,0
"p2","Baseline1",18,341,141,0,81228,82732,84740,2008,1,0,0
"p2","Baseline1",19,131,131,1,85532,87035,88836,1801,0,0,0
"p2","Baseline1",20,414,414,1,89651,91154,92987,1833,0,0,0
"p2","Baseline1",21,323,343,0,123908,125422,128451,3029,1,0,0
"p2","Baseline1",22,312,242,0,129253,130756,132731,1975,0,1,0
"p2","Baseline1",23,323,143,0,133501,135004,137132,2128,0,1,0
"p2","Baseline1",24,423,423,1,137925,139428,141588,2160,0,0,0
"p2","Baseline1",25,343,143,0,142467,143971,145923,1952,1,0,0
"p2","Baseline1",26,132,134,0,146724,148227,150429,2202,1,0,0
"p2","Baseline1",27,434,434,1,151292,152796,154659,1863,0,0,0
"p2","Baseline1",28,341,141,0,155516,157020,159107,2087,1,0,0
"p2","Baseline1",29,212,434,0,159963,161466,162978,1512,0,0,1
"p2","Baseline1",30,141,141,1,164275,165778,169627,3849,0,0,0
"p2","Baseline1",31,214,414,0,170420,171923,173515,1592,1,0,0
"p2","Baseline1",32,243,343,0,174267,175770,183803,8033,1,0,0
"p2","Baseline1",33,313,324,0,184532,186036,189116,3080,0,1,0
"p2","Baseline1",34,231,431,0,189925,191428,193747,2319,1,0,0
"p2","Baseline1",35,434,434,1,194571,196074,197954,1880,0,0,0
"p2","Baseline1",36,413,413,1,198947,200450,202715,2265,0,0,0
"p2","Baseline1",37,143,143,1,203499,205003,207755,2752,0,0,0
"p2","Baseline1",38,434,434,1,208612,210115,211922,1807,0,0,0
"p2","Baseline1",39,342,142,0,212787,214290,216611,2321,1,0,0
"p2","Baseline1",40,314,314,1,217523,219027,222898,3871,0,0,0
"p2","Baseline1",41,421,421,1,254195,255701,257907,2206,0,0,0
"p2","Baseline1",42,241,341,0,258635,260141,267443,7302,1,0,0
"p2","Baseline1",43,123,143,0,268171,269675,271643,1968,1,0,0
"p2","Baseline1",44,414,414,1,272427,273930,275690,1760,0,0,0
"p2","Baseline1",45,243,243,1,276427,277930,280699,2769,0,0,0
"p2","Baseline1",46,242,242,1,281451,282954,284882,1928,0,0,0
"p2","Baseline1",47,131,131,1,285635,287139,289034,1895,0,0,0
"p2","Baseline1",48,432,414,0,289836,291339,293347,2008,0,1,0
"p2","Baseline1",49,321,324,0,294116,295619,298426,2807,1,0,0
"p2","Baseline1",50,231,413,0,299179,300682,302594,1912,0,0,1
"p2","Baseline1",51,232,414,0,303347,304850,306874,2024,0,0,1
"p2","Baseline1",52,143,141,0,307915,309418,311867,2449,1,0,0
"p2","Baseline1",53,431,431,1,312707,314212,317195,2983,0,0,0
"p2","Baseline1",54,231,431,0,318036,319538,321835,2297,1,0,0
"p2","Baseline1",55,432,434,0,322666,324170,326491,2321,1,0,0
"p2","Baseline1",56,423,413,0,327340,328843,331282,2439,1,0,0
"p2","Baseline1",57,132,132,1,332692,334195,335954,1759,0,0,0
"p2","Baseline1",58,412,414,0,336788,338291,340370,2079,1,0,0
"p2","Baseline1",59,424,424,1,341252,342755,345227,2472,0,0,0
"p2","Baseline1",60,142,124,0,346323,347826,355323,7497,0,1,0
"p2","Baseline1",61,213,434,0,386859,388365,390179,1814,0,0,1
"p2","Baseline1",62,132,124,0,391067,392573,396234,3661,0,1,0
"p2","Baseline1",63,312,124,0,397011,398515,400250,1735,0,0,1
"p2","Baseline1",64,214,414,0,401347,402850,404578,1728,1,0,0
"p2","Baseline1",65,241,241,1,405381,406884,411138,4254,0,0,0
"p2","Baseline1",66,232,434,0,412098,413602,415826,2224,0,1,0
"p2","Baseline1",67,324,134,0,416651,418155,421459,3304,0,1,0
"p2","Baseline1",68,141,143,0,422291,423798,428858,5060,1,0,0
"p2","Baseline1",69,234,314,0,429787,431296,435778,4482,0,1,0
"p2","Baseline1",70,432,414,0,436563,438066,440074,2008,0,1,0
"p2","Baseline1",71,213,413,0,440892,442395,444098,1703,1,0,0
"p2","Baseline1",72,234,434,0,444908,446411,448186,1775,1,0,0
"p2","Baseline1",73,313,131,0,449026,450530,452586,2056,0,0,1
"p2","Baseline1",74,121,143,0,453475,454979,457139,2160,0,1,0
"p2","Baseline1",75,213,434,0,458011,459514,462259,2745,0,0,1
"p2","Baseline1",76,121,143,0,463187,464690,467067,2377,0,1,0
"p2","Baseline1",77,343,134,0,468020,469524,475699,6175,0,0,1
"p2","Baseline1",78,323,123,0,476579,478083,480634,2551,1,0,0
"p2","Baseline1",79,431,431,1,481395,482899,485938,3039,0,0,0
"p2","Baseline1",80,234,434,0,486779,488282,490106,1824,1,0,0
"p2","Baseline1",81,142,142,1,521026,522537,524362,1825,0,0,0
"p2","Baseline1",82,243,434,0,525091,526594,531930,5336,0,0,1
"p2","Baseline1",83,324,134,0,532762,534265,537314,3049,0,1,0
"p2","Baseline1",84,413,413,1,538130,539634,541465,1831,0,0,0
"p2","Baseline1",85,414,414,1,542284,543787,545786,1999,0,0,0
"p2","Baseline1",86,431,412,0,546586,548090,554154,6064,0,1,0
"p2","Baseline1",87,424,424,1,554955,556458,558194,1736,0,0,0
"p2","Baseline1",88,314,134,0,559003,560508,563387,2879,0,1,0
"p2","Baseline1",89,342,143,0,564203,565706,567402,1696,0,1,0
"p2","Baseline1",90,324,314,0,568218,569722,573034,3312,1,0,0
"p2","Baseline1",91,343,343,1,573828,575332,576825,1493,0,0,0
"p2","Baseline1",92,321,341,0,577635,579139,580858,1719,1,0,0
"p2","Baseline1",93,134,134,1,581682,583187,584898,1711,0,0,0
"p2","Baseline1",94,143,143,1,585771,587273,590146,2873,0,0,0
"p2","Baseline1",95,123,143,0,591051,592556,594418,1862,1,0,0
"p2","Baseline1",96,141,143,0,595258,596762,598482,1720,1,0,0
"p2","Baseline1",97,131,131,1,599298,600801,602634,1833,0,0,0
"p2","Baseline1",98,123,143,0,603514,605018,607834,2816,1,0,0
"p2","Baseline1",99,134,134,1,608859,610362,611930,1568,0,0,0
"p2","Baseline1",100,134,134,1,613146,614649,616362,1713,0,0,0
"p2","Baseline1",101,212,242,0,648091,649599,651946,2347,1,0,0
"p2","Baseline1",102,313,323,0,652883,654386,656921,2535,1,0,0
"p2","Baseline1",103,421,421,1,657882,659385,661338,1953,0,0,0
"p2","Baseline1",104,124,124,1,662178,663684,668538,4854,0,0,0
"p2","Baseline1",105,124,124,1,669459,670963,673969,3006,0,0,0
"p2","Baseline1",106,321,141,0,674762,676265,679674,3409,0,1,0
"p2","Baseline1",107,341,431,0,680762,682266,686378,4112,0,1,0
"p2","Baseline1",108,212,434,0,688459,689962,691674,1712,0,0,1
