"id","cond","trial.","realPattern","userAnswer","correct","playstamp","playendstamp","enterstamp","reaction_time","diffCount_1","diffCount_2","diffCount_3"
"p3","Baseline1",1,121,121,1,2598,4102,7894,3792,0,0,0
"p3","Baseline1",2,241,241,1,8735,10245,12590,2345,0,0,0
"p3","Baseline1",3,142,142,1,13215,14718,16598,1880,0,0,0
"p3","Baseline1",4,232,232,1,17270,18773,21486,2713,0,0,0
"p3","Baseline1",5,231,234,0,22471,23975,28301,4326,1,0,0
"p3","Baseline1",6,323,321,0,29166,30670,32805,2135,1,0,0
"p3","Baseline1",7,212,212,1,34582,36086,38597,2511,0,0,0
"p3","Baseline1",8,214,214,1,39327,40830,44414,3584,0,0,0
"p3","Baseline1",9,243,243,1,45230,46734,48966,2232,0,0,0
"p3","Baseline1",10,423,423,1,49750,51253,53470,2217,0,0,0
"p3","Baseline1",11,342,342,1,54158,55662,57926,2264,0,0,0
"p3","Baseline1",12,432,434,0,58654,60157,64389,4232,1,0,0
"p3","Baseline1",13,412,412,1,65062,66567,68094,1527,0,0,0
"p3","Baseline1",14,434,434,1,69111,70614,72222,1608,0,0,0
"p3","Baseline1",15,242,242,1,73318,74821,76742,1921,0,0,0
"p3","Baseline1",16,134,134,1,77407,78920,81214,2294,0,0,0
"p3","Baseline1",17,123,121,0,82038,83541,85478,1937,1,0,0
"p3","Baseline1",18,423,423,1,86166,87669,89533,1864,0,0,0
"p3","Baseline1",19,212,212,1,90279,91782,93629,1847,0,0,0
"p3","Baseline1",20,424,424,1,94431,95934,97414,1480,0,0,0
"p3","Baseline1",21,421,421,1,128262,129767,131926,2159,0,0,0
"p3","Baseline1",22,321,142,0,132670,134179,136717,2538,0,0,1
"p3","Baseline1",23,132,134,0,137527,139032,140821,1789,1,0,0
"p3","Baseline1",24,313,313,1,141582,143086,145302,2216,0,0,0
"p3","Baseline1",25,314,124,0,146063,147566,149190,1624,0,1,0
"p3","Baseline1",26,342,142,0,149846,151349,153478,2129,1,0,0
"p3","Baseline1",27,323,121,0,154223,155727,157318,1591,0,1,0
"p3","Baseline1",28,432,432,1,157984,159487,161389,1902,0,0,0
"p3","Baseline1",29,213,213,1,162143,163647,165446,1799,0,0,0
"p3","Baseline1",30,121,141,0,166126,167629,169509,1880,1,0,0
"p3","Baseline1",31,431,431,1,170191,171694,173350,1656,0,0,0
"p3","Baseline1",32,141,141,1,174160,175664,177629,1965,0,0,0
"p3","Baseline1",33,414,414,1,178702,180205,182685,2480,0,0,0
"p3","Baseline1",34,314,314,1,183422,184926,186638,1712,0,0,0
"p3","Baseline1",35,424,424,1,187406,188910,190597,1687,0,0,0
"p3","Baseline1",36,421,424,0,191406,192910,194445,1535,1,0,0
"p3","Baseline1",37,234,434,0,195206,196709,198597,1888,1,0,0
"p3","Baseline1",38,323,343,0,199407,200910,202893,1983,1,0,0
"p3","Baseline1",39,324,324,1,203702,205207,207222,2015,0,0,0
"p3","Baseline1",40,214,214,1,208046,209549,216382,6833,0,0,0
"p3","Baseline1",41,434,434,1,248982,250493,253166,2673,0,0,0
"p3","Baseline1",42,312,124,0,253958,255461,257390,1929,0,0,1
"p3","Baseline1",43,324,342,0,258078,259582,261686,2104,0,1,0
"p3","Baseline1",44,341,142,0,262382,263885,265861,1976,0,1,0
"p3","Baseline1",45,231,231,1,266726,268230,270102,1872,0,0,0
"p3","Baseline1",46,342,342,1,270814,272317,274942,2625,0,0,0
"p3","Baseline1",47,341,341,1,275734,277237,278893,1656,0,0,0
"p3","Baseline1",48,143,143,1,279558,281062,283622,2560,0,0,0
"p3","Baseline1",49,314,314,1,284326,285829,287974,2145,0,0,0
"p3","Baseline1",50,142,142,1,288686,290189,291637,1448,0,0,0
"p3","Baseline1",51,413,413,1,292366,293869,295326,1457,0,0,0
"p3","Baseline1",52,413,413,1,295967,297470,299558,2088,0,0,0
"p3","Baseline1",53,124,124,1,300253,301757,303733,1976,0,0,0
"p3","Baseline1",54,431,432,0,304438,305943,308942,2999,1,0,0
"p3","Baseline1",55,214,214,1,309582,311090,313926,2836,0,0,0
"p3","Baseline1",56,141,142,0,314543,316050,317957,1907,1,0,0
"p3","Baseline1",57,242,242,1,318641,320144,321989,1845,0,0,0
"p3","Baseline1",58,414,214,0,323038,324542,327686,3144,1,0,0
"p3","Baseline1",59,132,132,1,328310,329813,331957,2144,0,0,0
"p3","Baseline1",60,124,124,1,332607,334111,335926,1815,0,0,0
"p3","Baseline1",61,234,234,1,367126,368639,371958,3319,0,0,0
"p3","Baseline1",62,414,214,0,372726,374230,376302,2072,1,0,0
"p3","Baseline1",63,213,213,1,377094,378597,380158,1561,0,0,0
"p3","Baseline1",64,141,141,1,381294,382797,384853,2056,0,0,0
"p3","Baseline1",65,124,124,1,385591,387094,389446,2352,0,0,0
"p3","Baseline1",66,134,134,1,390158,391662,393654,1992,0,0,0
"p3","Baseline1",67,312,314,0,394310,395813,397605,1792,1,0,0
"p3","Baseline1",68,131,134,0,398263,399766,401030,1264,1,0,0
"p3","Baseline1",69,434,412,0,401934,403438,405439,2001,0,1,0
"p3","Baseline1",70,313,313,1,406110,407614,412669,5055,0,0,0
"p3","Baseline1",71,212,214,0,413391,414894,416445,1551,1,0,0
"p3","Baseline1",72,131,132,0,417135,418638,419837,1199,1,0,0
"p3","Baseline1",73,412,413,0,420494,421998,423885,1887,1,0,0
"p3","Baseline1",74,232,214,0,424734,426237,427726,1489,0,1,0
"p3","Baseline1",75,134,134,1,428486,429991,432509,2518,0,0,0
"p3","Baseline1",76,341,141,0,433349,434852,437990,3138,1,0,0
"p3","Baseline1",77,232,234,0,438662,440165,442269,2104,1,0,0
"p3","Baseline1",78,242,242,1,442958,444461,447021,2560,0,0,0
"p3","Baseline1",79,121,121,1,447726,449230,451566,2336,0,0,0
"p3","Baseline1",80,412,414,0,452190,453694,455438,1744,1,0,0
"p3","Baseline1",81,142,142,1,487365,488871,491357,2486,0,0,0
"p3","Baseline1",82,123,123,1,492158,493664,495669,2005,0,0,0
"p3","Baseline1",83,343,143,0,496334,497836,500005,2169,1,0,0
"p3","Baseline1",84,432,432,1,500685,502190,504110,1920,0,0,0
"p3","Baseline1",85,213,234,0,504903,506406,508526,2120,0,1,0
"p3","Baseline1",86,143,143,1,509222,510725,512117,1392,0,0,0
"p3","Baseline1",87,143,143,1,512798,514301,517725,3424,0,0,0
"p3","Baseline1",88,241,241,1,518406,519910,522302,2392,0,0,0
"p3","Baseline1",89,243,243,1,523152,524655,527094,2439,0,0,0
"p3","Baseline1",90,131,131,1,527854,529356,530686,1330,0,0,0
"p3","Baseline1",91,431,432,0,531447,532950,534733,1783,1,0,0
"p3","Baseline1",92,241,241,1,535414,536919,538565,1646,0,0,0
"p3","Baseline1",93,423,423,1,539199,540703,542742,2039,0,0,0
"p3","Baseline1",94,421,421,1,543439,544942,546622,1680,0,0,0
"p3","Baseline1",95,231,241,0,547350,548853,551653,2800,1,0,0
"p3","Baseline1",96,132,132,1,552663,554166,556294,2128,0,0,0
"p3","Baseline1",97,343,343,1,557070,558574,561157,2583,0,0,0
"p3","Baseline1",98,313,313,1,561894,563397,565549,2152,0,0,0
"p3","Baseline1",99,413,413,1,566239,567742,569461,1719,0,0,0
"p3","Baseline1",100,321,121,0,570198,571701,573837,2136,1,0,0
"p3","Baseline1",101,424,424,1,611342,612847,615221,2374,0,0,0
"p3","Baseline1",102,123,143,0,616006,617515,619733,2218,1,0,0
"p3","Baseline1",103,312,124,0,620438,621941,623910,1969,0,0,1
"p3","Baseline1",104,321,142,0,624629,626133,627773,1640,0,0,1
"p3","Baseline1",105,324,324,1,628486,629990,631917,1927,0,0,0
"p3","Baseline1",106,243,243,1,632710,634214,637206,2992,0,0,0
"p3","Baseline1",107,343,143,0,638014,639518,643485,3967,1,0,0
"p3","Baseline1",108,234,234,1,644222,645725,652589,6864,0,0,0
