"id","cond","trial.","realPattern","userAnswer","correct","playstamp","playendstamp","enterstamp","reaction_time","diffCount_1","diffCount_2","diffCount_3"
"p7","Baseline2",1,313,313,1,6457,7961,10545,2584,0,0,0
"p7","Baseline2",2,213,213,1,11706,13209,15072,1863,0,0,0
"p7","Baseline2",3,324,124,0,16082,17585,20697,3112,1,0,0
"p7","Baseline2",4,241,241,1,21642,23145,26281,3136,0,0,0
"p7","Baseline2",5,123,123,1,27194,28697,30961,2264,0,0,0
"p7","Baseline2",6,343,343,1,31921,33425,35729,2304,0,0,0
"p7","Baseline2",7,414,424,0,36769,38272,41161,2889,1,0,0
"p7","Baseline2",8,414,424,0,42081,43584,45825,2241,1,0,0
"p7","Baseline2",9,412,424,0,46729,48234,50617,2383,0,1,0
"p7","Baseline2",10,234,234,1,51490,52993,56090,3097,0,0,0
"p7","Baseline2",11,342,342,1,57025,58529,60777,2248,0,0,0
"p7","Baseline2",12,141,242,0,61761,63265,65321,2056,0,1,0
"p7","Baseline2",13,231,231,1,66313,67817,70184,2367,0,0,0
"p7","Baseline2",14,413,413,1,71106,72609,74993,2384,0,0,0
"p7","Baseline2",15,314,242,0,75881,77385,79425,2040,0,0,1
"p7","Baseline2",16,343,343,1,80386,81889,84225,2336,0,0,0
"p7","Baseline2",17,421,421,1,85145,86649,88977,2328,0,0,0
"p7","Baseline2",18,134,124,0,89849,91353,94362,3009,1,0,0
"p7","Baseline2",19,142,242,0,95218,96721,98473,1752,1,0,0
"p7","Baseline2",20,424,424,1,99730,101233,103233,2000,0,0,0
"p7","Baseline2",21,342,342,1,134434,135942,137985,2043,0,0,0
"p7","Baseline2",22,321,341,0,138954,140461,143305,2844,1,0,0
"p7","Baseline2",23,314,314,1,144169,145672,148129,2457,0,0,0
"p7","Baseline2",24,141,131,0,149561,151064,152993,1929,1,0,0
"p7","Baseline2",25,341,341,1,153841,155344,157377,2033,0,0,0
"p7","Baseline2",26,413,423,0,158273,159776,161673,1897,1,0,0
"p7","Baseline2",27,232,234,0,162681,164185,166537,2352,1,0,0
"p7","Baseline2",28,124,143,0,167433,168937,171065,2128,0,1,0
"p7","Baseline2",29,231,231,1,171898,173402,175625,2223,0,0,0
"p7","Baseline2",30,323,423,0,176513,178017,180209,2192,1,0,0
"p7","Baseline2",31,431,431,1,181081,182586,185273,2687,0,0,0
"p7","Baseline2",32,143,243,0,186193,187697,190121,2424,1,0,0
"p7","Baseline2",33,321,321,1,191129,192633,195169,2536,0,0,0
"p7","Baseline2",34,134,234,0,196098,197602,202233,4631,1,0,0
"p7","Baseline2",35,342,342,1,203073,204577,206681,2104,0,0,0
"p7","Baseline2",36,143,243,0,207801,209306,213425,4119,1,0,0
"p7","Baseline2",37,431,431,1,215377,216883,220105,3222,0,0,0
"p7","Baseline2",38,341,341,1,220922,222426,225065,2639,0,0,0
"p7","Baseline2",39,323,343,0,226001,227505,230393,2888,1,0,0
"p7","Baseline2",40,432,434,0,231305,232809,235745,2936,1,0,0
"p7","Baseline2",41,141,131,0,267345,268851,271873,3022,1,0,0
"p7","Baseline2",42,434,434,1,272785,274288,276449,2161,0,0,0
"p7","Baseline2",43,143,243,0,277498,279009,281561,2552,1,0,0
"p7","Baseline2",44,213,213,1,282433,283936,285985,2049,0,0,0
"p7","Baseline2",45,214,213,0,286818,288321,290321,2000,1,0,0
"p7","Baseline2",46,243,243,1,291161,292664,294617,1953,0,0,0
"p7","Baseline2",47,121,121,1,295450,296953,299936,2983,0,0,0
"p7","Baseline2",48,231,231,1,300849,302353,305217,2864,0,0,0
"p7","Baseline2",49,312,313,0,306057,307561,309577,2016,1,0,0
"p7","Baseline2",50,242,241,0,310434,311937,315472,3535,1,0,0
"p7","Baseline2",51,232,214,0,316441,317945,320041,2096,0,1,0
"p7","Baseline2",52,413,423,0,320882,322386,325009,2623,1,0,0
"p7","Baseline2",53,134,234,0,326025,327528,330233,2705,1,0,0
"p7","Baseline2",54,132,132,1,331089,332592,335417,2825,0,0,0
"p7","Baseline2",55,434,434,1,336353,337857,340632,2775,0,0,0
"p7","Baseline2",56,234,214,0,341682,343185,345769,2584,1,0,0
"p7","Baseline2",57,431,431,1,346834,348337,350144,1807,0,0,0
"p7","Baseline2",58,142,131,0,350938,352441,354665,2224,0,1,0
"p7","Baseline2",59,432,432,1,355594,357097,359801,2704,0,0,0
"p7","Baseline2",60,214,214,1,360785,362290,364680,2390,0,0,0
"p7","Baseline2",61,241,241,1,396010,397517,399601,2084,0,0,0
"p7","Baseline2",62,412,424,0,400665,402172,404305,2133,0,1,0
"p7","Baseline2",63,123,143,0,405250,406753,408801,2048,1,0,0
"p7","Baseline2",64,341,341,1,409722,411225,413417,2192,0,0,0
"p7","Baseline2",65,432,432,1,414329,415833,418817,2984,0,0,0
"p7","Baseline2",66,241,241,1,419842,421344,423833,2489,0,0,0
"p7","Baseline2",67,313,313,1,424681,426185,428256,2071,0,0,0
"p7","Baseline2",68,312,314,0,429105,430609,432953,2344,1,0,0
"p7","Baseline2",69,232,242,0,433850,435354,437961,2607,1,0,0
"p7","Baseline2",70,434,434,1,438738,440241,442824,2583,0,0,0
"p7","Baseline2",71,421,421,1,443658,445160,446793,1633,0,0,0
"p7","Baseline2",72,123,123,1,447618,449121,451265,2144,0,0,0
"p7","Baseline2",73,314,313,0,452121,453624,455657,2033,1,0,0
"p7","Baseline2",74,313,313,1,456721,458225,459905,1680,0,0,0
"p7","Baseline2",75,132,234,0,460761,462264,464353,2089,0,1,0
"p7","Baseline2",76,212,214,0,465377,466881,469049,2168,1,0,0
"p7","Baseline2",77,242,242,1,469946,471450,473953,2503,0,0,0
"p7","Baseline2",78,421,421,1,474881,476384,478337,1953,0,0,0
"p7","Baseline2",79,131,242,0,479377,480881,483209,2328,0,0,1
"p7","Baseline2",80,121,121,1,484146,485649,488361,2712,0,0,0
"p7","Baseline2",81,324,123,0,519730,521240,527113,5873,0,1,0
"p7","Baseline2",82,424,424,1,528226,529733,533193,3460,0,0,0
"p7","Baseline2",83,423,423,1,533993,535497,537665,2168,0,0,0
"p7","Baseline2",84,124,124,1,538554,540057,542544,2487,0,0,0
"p7","Baseline2",85,343,343,1,543370,544873,547008,2135,0,0,0
"p7","Baseline2",86,414,423,0,548121,549624,553113,3489,0,1,0
"p7","Baseline2",87,212,214,0,553962,555465,557745,2280,1,0,0
"p7","Baseline2",88,242,242,1,558970,560475,562457,1982,0,0,0
"p7","Baseline2",89,234,214,0,563513,565017,567361,2344,1,0,0
"p7","Baseline2",90,423,423,1,568393,569897,571713,1816,0,0,0
"p7","Baseline2",91,423,421,0,572625,574128,577025,2897,1,0,0
"p7","Baseline2",92,243,243,1,577921,579424,581361,1937,0,0,0
"p7","Baseline2",93,131,131,1,582257,583761,586425,2664,0,0,0
"p7","Baseline2",94,124,124,1,587226,588729,591089,2360,0,0,0
"p7","Baseline2",95,121,141,0,592001,593505,595801,2296,1,0,0
"p7","Baseline2",96,424,424,1,596697,598201,600113,1912,0,0,0
"p7","Baseline2",97,412,424,0,601154,602657,605201,2544,0,1,0
"p7","Baseline2",98,312,314,0,607545,609048,611848,2800,1,0,0
"p7","Baseline2",99,131,131,1,612818,614322,616225,1903,0,0,0
"p7","Baseline2",100,243,243,1,617682,619185,621129,1944,0,0,0
"p7","Baseline2",101,213,213,1,652681,654189,656681,2492,0,0,0
"p7","Baseline2",102,142,242,0,657889,659392,661713,2321,1,0,0
"p7","Baseline2",103,324,324,1,662857,664361,666937,2576,0,0,0
"p7","Baseline2",104,212,212,1,668074,669578,672065,2487,0,0,0
"p7","Baseline2",105,323,343,0,673194,674698,677561,2863,1,0,0
"p7","Baseline2",106,214,214,1,678657,680161,683256,3095,0,0,0
"p7","Baseline2",107,132,132,1,684729,686233,688488,2255,0,0,0
"p7","Baseline2",108,321,321,1,689561,691073,693745,2672,0,0,0
