id,cond,trial#,realPattern,userAnswer,correct,c1,c2,c3,playstamp,playendstamp,enterstamp,reactionTime
p3,armFront,1,213,213,1,1,1,1,10934,12444,19570,7126
p3,armFront,2,413,413,1,1,1,1,20488,21994,24740,2746
p3,armFront,3,243,423,0,0,0,1,26653,28157,33134,4977
p3,armFront,4,431,412,0,1,0,0,34499,36002,40404,4402
p3,armFront,5,134,132,0,1,1,0,42093,43596,47493,3897
p3,armFront,6,124,124,1,1,1,1,48672,50175,53082,2907
p3,armFront,7,123,123,1,1,1,1,54242,55745,59223,3478
p3,armFront,8,234,134,0,0,1,1,60407,61911,65466,3555
p3,armFront,9,243,243,1,1,1,1,66545,68061,72708,4647
p3,armFront,10,421,421,1,1,1,1,75253,76756,79727,2971
p3,armFront,11,231,431,0,0,1,1,81113,82617,86137,3520
p3,armFront,12,423,423,1,1,1,1,87635,89138,93351,4213
p3,armFront,13,324,324,1,1,1,1,94403,95906,99800,3894
p3,armFront,14,312,124,0,0,0,0,100850,102353,107615,5262
p3,armFront,15,213,214,0,1,1,0,108697,110200,117104,6904
p3,armFront,16,134,134,1,1,1,1,118667,120170,123290,3120
p3,armFront,17,423,423,1,1,1,1,124270,125774,129864,4090
p3,armFront,18,142,142,1,1,1,1,130825,132329,135470,3141
p3,armFront,19,234,432,0,0,1,0,136414,137918,140888,2970
p3,armFront,20,423,423,1,1,1,1,142123,143627,146388,2761
p3,armFront,21,432,432,1,1,1,1,168409,169917,173272,3355
p3,armFront,22,123,143,0,1,0,1,174924,176432,179567,3135
p3,armFront,23,421,421,1,1,1,1,180700,182202,185548,3346
p3,armFront,24,413,413,1,1,1,1,187169,188673,192204,3531
p3,armFront,25,231,431,0,0,1,1,193132,194635,197695,3060
p3,armFront,26,413,413,1,1,1,1,199155,200659,203626,2967
p3,armFront,27,132,134,0,1,1,0,204644,206148,209215,3067
p3,armFront,28,134,134,1,1,1,1,210221,211724,214825,3101
p3,armFront,29,142,142,1,1,1,1,216249,217752,220907,3155
p3,armFront,30,241,143,0,0,1,0,222220,223723,228440,4717
p3,armFront,31,214,214,1,1,1,1,230495,231998,236081,4083
p3,armFront,32,321,123,0,0,1,0,237546,239050,243203,4153
p3,armFront,33,342,342,1,1,1,1,244237,245740,248762,3022
p3,armFront,34,423,421,0,1,1,0,251316,252818,257635,4817
p3,armFront,35,324,324,1,1,1,1,258541,260044,266196,6152
p3,armFront,36,412,412,1,1,1,1,267283,268786,273112,4326
p3,armFront,37,143,143,1,1,1,1,274551,276055,279106,3051
p3,armFront,38,413,413,1,1,1,1,280116,281620,284259,2639
p3,armFront,39,243,243,1,1,1,1,285328,286831,289868,3037
p3,armFront,40,214,214,1,1,1,1,290909,292412,295247,2835
p3,armFront,41,231,421,0,0,0,1,317556,319064,323544,4480
p3,armFront,42,421,421,1,1,1,1,324552,326064,329523,3459
p3,armFront,43,312,324,0,1,0,0,330519,332022,336417,4395
p3,armFront,44,143,143,1,1,1,1,338462,339966,343769,3803
p3,armFront,45,341,341,1,1,1,1,344700,346203,349949,3746
p3,armFront,46,123,143,0,1,0,1,351867,353371,357608,4237
p3,armFront,47,412,412,1,1,1,1,358935,360439,364018,3579
p3,armFront,48,123,123,1,1,1,1,366696,368200,371020,2820
p3,armFront,49,124,124,1,1,1,1,371911,373414,380917,7503
p3,armFront,50,142,142,1,1,1,1,381816,383319,386116,2797
p3,armFront,51,324,324,1,1,1,1,387000,388504,391747,3243
p3,armFront,52,143,143,1,1,1,1,392688,394191,396821,2630
p3,armFront,53,124,124,1,1,1,1,397956,399459,401808,2349
p3,armFront,54,142,142,1,1,1,1,402738,404242,407266,3024
p3,armFront,55,213,213,1,1,1,1,408149,409651,412578,2927
p3,armFront,56,213,213,1,1,1,1,413514,415017,417790,2773
p3,armFront,57,214,214,1,1,1,1,418697,420200,423351,3151
p3,armFront,58,132,132,1,1,1,1,424220,425724,431271,5547
p3,armFront,59,231,231,1,1,1,1,432133,433637,436201,2564
p3,armFront,60,134,134,1,1,1,1,437036,438541,441455,2914
p3,armFront,61,321,321,1,1,1,1,462302,463810,469015,5205
p3,armFront,62,421,421,1,1,1,1,470224,471734,474518,2784
p3,armFront,63,241,241,1,1,1,1,475510,477013,481345,4332
p3,armFront,64,423,423,1,1,1,1,482240,483743,487205,3462
p3,armFront,65,234,432,0,0,1,0,488170,489673,493818,4145
p3,armFront,66,341,341,1,1,1,1,496379,497882,500954,3072
p3,armFront,67,214,214,1,1,1,1,501892,503396,507183,3787
p3,armFront,68,341,341,1,1,1,1,508192,509696,513078,3382
p3,armFront,69,241,241,1,1,1,1,514573,516076,519477,3401
p3,armFront,70,132,134,0,1,1,0,520736,522239,525552,3313
p3,armFront,71,142,142,1,1,1,1,526575,528078,533285,5207
p3,armFront,72,432,432,1,1,1,1,534170,535673,541615,5942
p3,armFront,73,321,143,0,0,0,0,542503,544006,549078,5072
p3,armFront,74,312,324,0,1,0,0,550603,552106,554885,2779
p3,armFront,75,321,341,0,1,0,1,555834,557338,562126,4788
p3,armFront,76,412,412,1,1,1,1,564940,566443,570238,3795
p3,armFront,77,342,342,1,1,1,1,571250,572753,576293,3540
p3,armFront,78,341,341,1,1,1,1,577260,578763,582113,3350
p3,armFront,79,413,413,1,1,1,1,583915,585419,588927,3508
p3,armFront,80,314,314,1,1,1,1,589884,591388,594615,3227
p3,armFront,81,214,214,1,1,1,1,617428,618936,621834,2898
p3,armFront,82,324,324,1,1,1,1,622780,624283,627201,2918
p3,armFront,83,132,132,1,1,1,1,628440,629944,633887,3943
p3,armFront,84,241,231,0,1,0,1,634877,636386,641583,5197
p3,armFront,85,243,241,0,1,1,0,642422,643931,647019,3088
p3,armFront,86,432,412,0,1,0,1,648081,649585,653827,4242
p3,armFront,87,143,143,1,1,1,1,654738,656240,659431,3191
p3,armFront,88,431,431,1,1,1,1,660489,661993,665362,3369
p3,armFront,89,124,124,1,1,1,1,666266,667769,670279,2510
p3,armFront,90,342,342,1,1,1,1,671129,672633,675834,3201
p3,armFront,91,231,214,0,1,0,0,676715,678219,686829,8610
p3,armFront,92,421,421,1,1,1,1,688029,689531,692162,2631
p3,armFront,93,342,342,1,1,1,1,694213,695720,698644,2924
p3,armFront,94,213,213,1,1,1,1,699817,701323,703856,2533
p3,armFront,95,432,421,0,1,0,0,704811,706314,710394,4080
p3,armFront,96,312,314,0,1,1,0,711294,712797,715776,2979
p3,armFront,97,321,341,0,1,0,1,717380,718884,721723,2839
p3,armFront,98,314,314,1,1,1,1,723097,724600,728402,3802
p3,armFront,99,314,314,1,1,1,1,729965,731468,734536,3068
p3,armFront,100,134,134,1,1,1,1,735884,737388,740234,2846
p3,armFront,101,243,241,0,1,1,0,761816,763323,766105,2782
p3,armFront,102,132,132,1,1,1,1,767010,768519,771570,3051
p3,armFront,103,314,324,0,1,0,1,772391,773895,776229,2334
p3,armFront,104,432,412,0,1,0,1,777055,778559,781801,3242
p3,armFront,105,431,413,0,1,0,0,782695,784198,788078,3880
p3,armFront,106,143,143,1,1,1,1,789470,790973,793857,2884
p3,armFront,107,412,234,0,0,0,0,794826,796330,801036,4706
p3,armFront,108,431,431,1,1,1,1,802541,804044,807535,3491
p3,armFront,109,124,124,1,1,1,1,808414,809918,813121,3203
p3,armFront,110,342,342,1,1,1,1,813965,815469,817932,2463
p3,armFront,111,234,214,0,1,0,1,818789,820293,823671,3378
p3,armFront,112,324,124,0,0,1,1,824661,826164,831264,5100
p3,armFront,113,412,412,1,1,1,1,832153,833665,837836,4171
p3,armFront,114,123,123,1,1,1,1,838780,840288,843572,3284
p3,armFront,115,314,314,1,1,1,1,844437,845941,848673,2732
p3,armFront,116,312,324,0,1,0,0,849849,851352,854299,2947
p3,armFront,117,234,234,1,1,1,1,855195,856698,861979,5281
p3,armFront,118,431,431,1,1,1,1,862822,864325,869269,4944
p3,armFront,119,341,134,0,0,0,0,870323,871826,875930,4104
p3,armFront,120,241,231,0,1,0,1,877518,879020,883312,4292
