id,cond,trial#,realPattern,userAnswer,correct,c1,c2,c3,playstamp,playendstamp,enterstamp,reactionTime
p4,armBody,1,312,413,0,0,1,0,12081,13591,16437,2846
p4,armBody,2,143,234,0,0,0,0,17605,19110,22185,3075
p4,armBody,3,321,423,0,0,1,0,23905,25408,28523,3115
p4,armBody,4,241,241,1,1,1,1,29530,31032,33988,2956
p4,armBody,5,423,423,1,1,1,1,35055,36559,45290,8731
p4,armBody,6,123,241,0,0,0,0,46852,48356,52029,3673
p4,armBody,7,231,231,1,1,1,1,53122,54625,57529,2904
p4,armBody,8,431,243,0,0,0,0,58495,59998,63075,3077
p4,armBody,9,231,243,0,1,0,0,63961,65463,68427,2964
p4,armBody,10,341,423,0,0,0,0,69208,70712,73744,3032
p4,armBody,11,124,243,0,0,0,0,74951,76454,78763,2309
p4,armBody,12,314,423,0,0,0,0,79537,81040,83939,2899
p4,armBody,13,321,423,0,0,1,0,84644,86147,88935,2788
p4,armBody,14,431,431,1,1,1,1,89865,91368,93533,2165
p4,armBody,15,412,412,1,1,1,1,94452,95955,98704,2749
p4,armBody,16,413,413,1,1,1,1,99608,101111,104451,3340
p4,armBody,17,421,413,0,1,0,0,105639,107143,109700,2557
p4,armBody,18,134,234,0,0,1,1,110539,112042,114466,2424
p4,armBody,19,132,241,0,0,0,0,115320,116823,120664,3841
p4,armBody,20,341,413,0,0,0,0,121409,122913,126775,3862
p4,armBody,21,213,234,0,1,0,0,147656,149170,152530,3360
p4,armBody,22,312,412,0,0,1,1,153531,155035,158196,3161
p4,armBody,23,243,243,1,1,1,1,159206,160710,163171,2461
p4,armBody,24,324,423,0,0,1,0,164255,165758,168668,2910
p4,armBody,25,342,421,0,0,0,0,169433,170936,173397,2461
p4,armBody,26,231,241,0,1,0,1,174316,175820,178218,2398
p4,armBody,27,124,324,0,0,1,1,178995,180497,183278,2781
p4,armBody,28,413,423,0,1,0,1,184065,185567,187783,2216
p4,armBody,29,214,324,0,0,0,1,188779,190283,193420,3137
p4,armBody,30,312,412,0,0,1,1,194540,196043,198878,2835
p4,armBody,31,423,423,1,1,1,1,199942,201445,203301,1856
p4,armBody,32,243,241,0,1,1,0,204406,205910,208158,2248
p4,armBody,33,423,423,1,1,1,1,208857,210360,212557,2197
p4,armBody,34,241,241,1,1,1,1,213521,215024,218309,3285
p4,armBody,35,432,241,0,0,0,0,220045,221549,224170,2621
p4,armBody,36,413,413,1,1,1,1,224991,226494,230196,3702
p4,armBody,37,134,132,0,1,1,0,231247,232750,234944,2194
p4,armBody,38,243,243,1,1,1,1,235864,237367,239272,1905
p4,armBody,39,214,231,0,1,0,0,240058,241562,244729,3167
p4,armBody,40,143,241,0,0,1,0,245577,247080,252032,4952
p4,armBody,41,412,214,0,0,1,0,273418,274925,278271,3346
p4,armBody,42,124,124,1,1,1,1,279417,280923,283430,2507
p4,armBody,43,412,413,0,1,1,0,284428,285931,288914,2983
p4,armBody,44,132,241,0,0,0,0,289832,291336,295349,4013
p4,armBody,45,342,324,0,1,0,0,296961,298465,301353,2888
p4,armBody,46,142,143,0,1,1,0,302165,303668,306943,3275
p4,armBody,47,324,413,0,0,0,0,307840,309343,312278,2935
p4,armBody,48,214,234,0,1,0,1,313044,314547,317406,2859
p4,armBody,49,421,423,0,1,1,0,318274,319777,323167,3390
p4,armBody,50,432,431,0,1,1,0,324008,325511,328461,2950
p4,armBody,51,143,341,0,0,1,0,329151,330654,333329,2675
p4,armBody,52,413,413,1,1,1,1,334083,335585,338029,2444
p4,armBody,53,134,134,1,1,1,1,338782,340285,342659,2374
p4,armBody,54,342,421,0,0,0,0,343506,345009,347648,2639
p4,armBody,55,123,124,0,1,1,0,348432,349935,352102,2167
p4,armBody,56,243,243,1,1,1,1,352827,354329,356778,2449
p4,armBody,57,234,134,0,0,1,1,357808,359312,361152,1840
p4,armBody,58,312,431,0,0,0,0,361998,363500,366606,3106
p4,armBody,59,412,412,1,1,1,1,367317,368821,371798,2977
p4,armBody,60,124,124,1,1,1,1,372734,374237,376796,2559
p4,armBody,61,132,241,0,0,0,0,398285,399795,402448,2653
p4,armBody,62,341,421,0,0,0,1,403676,405179,408512,3333
p4,armBody,63,431,431,1,1,1,1,409995,411498,414579,3081
p4,armBody,64,324,423,0,0,1,0,416416,417919,420580,2661
p4,armBody,65,342,421,0,0,0,0,421538,423041,425677,2636
p4,armBody,66,241,241,1,1,1,1,426519,428022,432869,4847
p4,armBody,67,213,213,1,1,1,1,433565,435068,437614,2546
p4,armBody,68,123,124,0,1,1,0,438460,439962,441833,1871
p4,armBody,69,314,412,0,0,1,0,442943,444454,446797,2343
p4,armBody,70,421,213,0,0,0,0,447609,449120,451383,2263
p4,armBody,71,234,243,0,1,0,0,452233,453741,456011,2270
p4,armBody,72,314,123,0,0,0,0,456840,458344,460202,1858
p4,armBody,73,431,231,0,0,1,1,461028,462531,465150,2619
p4,armBody,74,134,231,0,0,1,0,465927,467429,469507,2078
p4,armBody,75,341,421,0,0,0,1,470265,471768,474078,2310
p4,armBody,76,134,132,0,1,1,0,474799,476302,478374,2072
p4,armBody,77,432,231,0,0,1,0,479060,480564,482609,2045
p4,armBody,78,241,132,0,0,0,0,483323,484826,486824,1998
p4,armBody,79,321,231,0,0,0,1,487548,489051,491319,2268
p4,armBody,80,213,132,0,0,0,0,492037,493542,495896,2354
p4,armBody,81,213,231,0,1,0,0,516961,518467,520626,2159
p4,armBody,82,314,214,0,0,1,1,521584,523092,525353,2261
p4,armBody,83,421,213,0,0,0,0,526121,527625,530483,2858
p4,armBody,84,231,231,1,1,1,1,531226,532729,535312,2583
p4,armBody,85,132,231,0,0,1,0,536084,537587,540088,2501
p4,armBody,86,342,421,0,0,0,0,540810,542314,544840,2526
p4,armBody,87,124,124,1,1,1,1,545598,547101,549117,2016
p4,armBody,88,321,421,0,0,1,1,549810,551313,553449,2136
p4,armBody,89,213,243,0,1,0,1,554161,555665,557835,2170
p4,armBody,90,324,231,0,0,0,0,558561,560064,562655,2591
p4,armBody,91,314,423,0,0,0,0,563338,564840,567632,2792
p4,armBody,92,423,423,1,1,1,1,568348,569852,573788,3936
p4,armBody,93,432,431,0,1,1,0,574479,575983,578797,2814
p4,armBody,94,243,243,1,1,1,1,580103,581606,584112,2506
p4,armBody,95,214,213,0,1,1,0,584848,586350,588714,2364
p4,armBody,96,432,431,0,1,1,0,589378,590881,594455,3574
p4,armBody,97,123,234,0,0,0,0,595205,596708,599727,3019
p4,armBody,98,423,413,0,1,0,1,600597,602100,604186,2086
p4,armBody,99,142,143,0,1,1,0,604924,606428,609342,2914
p4,armBody,100,413,341,0,0,0,0,610112,611615,614945,3330
p4,armBody,101,321,413,0,0,0,0,635775,637286,639461,2175
p4,armBody,102,324,412,0,0,0,0,640710,642213,644750,2537
p4,armBody,103,234,231,0,1,1,0,645513,647017,649822,2805
p4,armBody,104,123,124,0,1,1,0,650523,652026,654762,2736
p4,armBody,105,214,241,0,1,0,0,655486,656990,660541,3551
p4,armBody,106,142,231,0,0,0,0,661174,662678,665007,2329
p4,armBody,107,312,312,1,1,1,1,665708,667211,669758,2547
p4,armBody,108,241,241,1,1,1,1,670788,672292,675177,2885
p4,armBody,109,142,241,0,0,1,0,675873,677377,679965,2588
p4,armBody,110,132,241,0,0,0,0,680596,682099,684798,2699
p4,armBody,111,412,412,1,1,1,1,685467,686970,689007,2037
p4,armBody,112,143,243,0,0,1,1,689706,691209,693363,2154
p4,armBody,113,231,243,0,1,0,0,694053,695557,697862,2305
p4,armBody,114,431,431,1,1,1,1,698565,700068,702413,2345
p4,armBody,115,143,243,0,0,1,1,703115,704618,706627,2009
p4,armBody,116,142,241,0,0,1,0,707302,708805,711273,2468
p4,armBody,117,341,324,0,1,0,0,711955,713458,715161,1703
p4,armBody,118,234,243,0,1,0,0,715800,717303,719635,2332
p4,armBody,119,234,243,0,1,0,0,720978,722481,724837,2356
p4,armBody,120,421,423,0,1,1,0,725609,727112,729558,2446
