id,cond,trial#,realPattern,userAnswer,correct,c1,c2,c3,playstamp,playendstamp,enterstamp,reactionTime
p5,armBody,1,413,413,1,1,1,1,2708,4211,6022,1811
p5,armBody,2,314,412,0,0,1,0,6771,8275,10402,2127
p5,armBody,3,312,412,0,0,1,1,11120,12623,14665,2042
p5,armBody,4,314,214,0,0,1,1,15359,16862,19195,2333
p5,armBody,5,143,143,1,1,1,1,20331,21834,24105,2271
p5,armBody,6,412,412,1,1,1,1,24888,26391,28690,2299
p5,armBody,7,214,214,1,1,1,1,29449,30951,33799,2848
p5,armBody,8,234,241,0,1,0,0,34521,36024,39696,3672
p5,armBody,9,312,412,0,0,1,1,40476,41980,44606,2626
p5,armBody,10,123,123,1,1,1,1,45408,46911,49448,2537
p5,armBody,11,423,413,0,1,0,1,50156,51659,53738,2079
p5,armBody,12,342,342,1,1,1,1,54458,55961,58541,2580
p5,armBody,13,321,321,1,1,1,1,59264,60768,62959,2191
p5,armBody,14,431,431,1,1,1,1,63657,65161,67549,2388
p5,armBody,15,431,231,0,0,1,1,68321,69824,72098,2274
p5,armBody,16,143,143,1,1,1,1,72795,74299,75832,1533
p5,armBody,17,234,234,1,1,1,1,76542,78044,80106,2062
p5,armBody,18,321,421,0,0,1,1,80747,82250,85910,3660
p5,armBody,19,342,342,1,1,1,1,86574,88077,89805,1728
p5,armBody,20,312,312,1,1,1,1,90614,92117,97366,5249
p5,armBody,21,214,234,0,1,0,1,119237,120744,122938,2194
p5,armBody,22,231,241,0,1,0,1,124121,125627,127343,1716
p5,armBody,23,324,423,0,0,1,0,128105,129608,131394,1786
p5,armBody,24,421,213,0,0,0,0,132091,133594,135196,1602
p5,armBody,25,142,241,0,0,1,0,135903,137406,139001,1595
p5,armBody,26,214,214,1,1,1,1,139748,141251,145937,4686
p5,armBody,27,321,421,0,0,1,1,147001,148504,150858,2354
p5,armBody,28,243,243,1,1,1,1,151596,153100,156167,3067
p5,armBody,29,123,123,1,1,1,1,156874,158377,164163,5786
p5,armBody,30,143,143,1,1,1,1,164965,166468,169207,2739
p5,armBody,31,241,241,1,1,1,1,170286,171789,173821,2032
p5,armBody,32,142,142,1,1,1,1,174595,176104,178236,2132
p5,armBody,33,231,241,0,1,0,1,178910,180414,182946,2532
p5,armBody,34,421,241,0,0,0,1,183708,185215,187202,1987
p5,armBody,35,124,324,0,0,1,1,188002,189505,192125,2620
p5,armBody,36,413,423,0,1,0,1,192846,194349,196609,2260
p5,armBody,37,423,423,1,1,1,1,197472,198975,202366,3391
p5,armBody,38,412,412,1,1,1,1,203082,204584,206735,2151
p5,armBody,39,123,423,0,0,1,1,207569,209073,211143,2070
p5,armBody,40,231,241,0,1,0,1,212751,214254,217358,3104
p5,armBody,41,421,213,0,0,0,0,238646,240155,242011,1856
p5,armBody,42,314,412,0,0,1,0,242796,244300,246047,1747
p5,armBody,43,241,241,1,1,1,1,246794,248297,249685,1388
p5,armBody,44,321,241,0,0,0,1,250323,251827,253256,1429
p5,armBody,45,314,412,0,0,1,0,253896,255399,257408,2009
p5,armBody,46,243,243,1,1,1,1,258038,259541,266425,6884
p5,armBody,47,143,124,0,1,0,0,267037,268541,270280,1739
p5,armBody,48,432,431,0,1,1,0,270901,272404,274591,2187
p5,armBody,49,234,142,0,0,0,0,275237,276740,278564,1824
p5,armBody,50,134,142,0,1,0,0,279288,280791,282666,1875
p5,armBody,51,432,241,0,0,0,0,283330,284833,287105,2272
p5,armBody,52,143,123,0,1,0,1,287825,289329,291200,1871
p5,armBody,53,341,321,0,1,0,1,291920,293423,296044,2621
p5,armBody,54,231,241,0,1,0,1,296907,298410,300504,2094
p5,armBody,55,231,241,0,1,0,1,301783,303286,305456,2170
p5,armBody,56,234,234,1,1,1,1,306118,307621,313294,5673
p5,armBody,57,431,241,0,0,0,1,314059,315562,318001,2439
p5,armBody,58,341,421,0,0,0,1,318694,320197,322659,2462
p5,armBody,59,342,342,1,1,1,1,323414,324917,326976,2059
p5,armBody,60,124,124,1,1,1,1,327678,329182,331206,2024
p5,armBody,61,124,124,1,1,1,1,352381,353887,355789,1902
p5,armBody,62,412,412,1,1,1,1,356569,358074,359915,1841
p5,armBody,63,324,423,0,0,1,0,360652,362156,363964,1808
p5,armBody,64,214,214,1,1,1,1,364985,366489,369705,3216
p5,armBody,65,234,241,0,1,0,0,370430,371933,377287,5354
p5,armBody,66,324,243,0,0,0,0,377915,379418,383136,3718
p5,armBody,67,341,421,0,0,0,1,384076,385579,388518,2939
p5,armBody,68,341,421,0,0,0,1,389187,390690,392093,1403
p5,armBody,69,132,142,0,1,0,1,392778,394281,398350,4069
p5,armBody,70,432,412,0,1,0,1,398989,400493,402423,1930
p5,armBody,71,423,213,0,0,0,1,403067,404570,406069,1499
p5,armBody,72,124,142,0,1,0,0,406752,408256,410528,2272
p5,armBody,73,132,142,0,1,0,1,411467,412970,414592,1622
p5,armBody,74,342,421,0,0,0,0,415532,417035,420682,3647
p5,armBody,75,134,142,0,1,0,0,421389,422893,424632,1739
p5,armBody,76,123,123,1,1,1,1,425322,426825,429432,2607
p5,armBody,77,432,432,1,1,1,1,430186,431690,435188,3498
p5,armBody,78,134,132,0,1,1,0,435893,437396,439432,2036
p5,armBody,79,312,431,0,0,0,0,440292,441795,444072,2277
p5,armBody,80,314,312,0,1,1,0,444921,446429,448746,2317
p5,armBody,81,142,142,1,1,1,1,469793,471302,473200,1898
p5,armBody,82,431,231,0,0,1,1,473944,475447,477158,1711
p5,armBody,83,241,241,1,1,1,1,477826,479329,480816,1487
p5,armBody,84,324,324,1,1,1,1,481534,483037,485917,2880
p5,armBody,85,321,423,0,0,1,0,486566,488069,492079,4010
p5,armBody,86,213,214,0,1,1,0,492783,494287,496102,1815
p5,armBody,87,413,423,0,1,0,1,496721,498224,502980,4756
p5,armBody,88,134,142,0,1,0,0,503714,505217,509589,4372
p5,armBody,89,132,142,0,1,0,1,510350,511853,513963,2110
p5,armBody,90,341,421,0,0,0,1,514714,516218,518036,1818
p5,armBody,91,342,421,0,0,0,0,518737,520241,521937,1696
p5,armBody,92,423,423,1,1,1,1,522615,524118,527352,3234
p5,armBody,93,243,214,0,1,0,0,528018,529522,532071,2549
p5,armBody,94,412,412,1,1,1,1,532788,534291,537606,3315
p5,armBody,95,213,213,1,1,1,1,538300,539802,542157,2355
p5,armBody,96,243,241,0,1,1,0,542822,544325,547949,3624
p5,armBody,97,432,231,0,0,1,0,548650,550153,552260,2107
p5,armBody,98,124,324,0,0,1,1,553001,554505,556557,2052
p5,armBody,99,142,321,0,0,0,0,557221,558724,562829,4105
p5,armBody,100,431,431,1,1,1,1,563560,565063,566711,1648
p5,armBody,101,134,142,0,1,0,0,587689,589196,590795,1599
p5,armBody,102,324,421,0,0,1,0,591565,593076,594894,1818
p5,armBody,103,241,241,1,1,1,1,595594,597098,598662,1564
p5,armBody,104,312,412,0,0,1,1,599393,600896,602899,2003
p5,armBody,105,214,214,1,1,1,1,603585,605089,606920,1831
p5,armBody,106,213,214,0,1,1,0,607581,609084,610994,1910
p5,armBody,107,413,412,0,1,1,0,611664,613167,615609,2442
p5,armBody,108,123,324,0,0,1,0,616327,617830,619805,1975
p5,armBody,109,412,412,1,1,1,1,620533,622037,624225,2188
p5,armBody,110,421,421,1,1,1,1,624853,626357,629790,3433
p5,armBody,111,243,143,0,0,1,1,630447,631950,634587,2637
p5,armBody,112,421,421,1,1,1,1,635276,636779,638801,2022
p5,armBody,113,213,234,0,1,0,0,639460,640963,642976,2013
p5,armBody,114,413,412,0,1,1,0,643653,645156,646797,1641
p5,armBody,115,213,214,0,1,1,0,648541,650045,651613,1568
p5,armBody,116,142,142,1,1,1,1,652266,653769,655867,2098
p5,armBody,117,132,142,0,1,0,1,656629,658133,659996,1863
p5,armBody,118,423,423,1,1,1,1,660890,662393,665573,3180
p5,armBody,119,241,241,1,1,1,1,666713,668216,670138,1922
p5,armBody,120,132,142,0,1,0,1,670969,672473,674771,2298
