id,cond,trial#,realPattern,userAnswer,correct,c1,c2,c3,playstamp,playendstamp,enterstamp,reactionTime
p6,armFront,1,234,432,0,0,1,0,6030,7533,11359,3826
p6,armFront,2,432,214,0,0,0,0,12154,13657,17451,3794
p6,armFront,3,412,432,0,1,0,1,18334,19837,22629,2792
p6,armFront,4,423,423,1,1,1,1,23989,25492,30275,4783
p6,armFront,5,341,341,1,1,1,1,31232,32735,34897,2162
p6,armFront,6,231,231,1,1,1,1,35666,37169,41080,3911
p6,armFront,7,314,314,1,1,1,1,42037,43541,45696,2155
p6,armFront,8,134,134,1,1,1,1,46479,47982,49936,1954
p6,armFront,9,421,421,1,1,1,1,50659,52163,55114,2951
p6,armFront,10,413,413,1,1,1,1,55897,57400,59660,2260
p6,armFront,11,432,432,1,1,1,1,60361,61864,64234,2370
p6,armFront,12,312,124,0,0,0,0,64972,66475,68368,1893
p6,armFront,13,431,431,1,1,1,1,69066,70570,73486,2916
p6,armFront,14,412,412,1,1,1,1,74152,75656,78354,2698
p6,armFront,15,342,342,1,1,1,1,79484,80987,83367,2380
p6,armFront,16,123,123,1,1,1,1,84148,85651,87930,2279
p6,armFront,17,124,124,1,1,1,1,88805,90308,92294,1986
p6,armFront,18,143,123,0,1,0,1,93220,94723,96684,1961
p6,armFront,19,421,421,1,1,1,1,97376,98879,100663,1784
p6,armFront,20,412,214,0,0,1,0,101585,103089,105723,2634
p6,armFront,21,134,134,1,1,1,1,126647,128156,131901,3745
p6,armFront,22,234,234,1,1,1,1,132765,134273,136573,2300
p6,armFront,23,413,413,1,1,1,1,137322,138825,140963,2138
p6,armFront,24,314,314,1,1,1,1,141746,143250,145677,2427
p6,armFront,25,132,134,0,1,1,0,146393,147897,150795,2898
p6,armFront,26,142,142,1,1,1,1,151625,153128,155780,2652
p6,armFront,27,432,231,0,0,1,0,156454,157958,160768,2810
p6,armFront,28,214,214,1,1,1,1,161940,163442,165605,2163
p6,armFront,29,412,412,1,1,1,1,166389,167892,171502,3610
p6,armFront,30,431,431,1,1,1,1,172274,173777,176687,2910
p6,armFront,31,213,213,1,1,1,1,177764,179268,181194,1926
p6,armFront,32,431,431,1,1,1,1,181894,183398,185587,2189
p6,armFront,33,213,213,1,1,1,1,186278,187781,190339,2558
p6,armFront,34,341,342,0,1,1,0,191010,192513,195744,3231
p6,armFront,35,123,123,1,1,1,1,196939,198442,200471,2029
p6,armFront,36,134,134,1,1,1,1,201202,202705,204516,1811
p6,armFront,37,142,142,1,1,1,1,205491,206994,209775,2781
p6,armFront,38,231,213,0,1,0,0,210673,212177,214398,2221
p6,armFront,39,243,243,1,1,1,1,216712,218215,220280,2065
p6,armFront,40,214,214,1,1,1,1,221040,222543,224743,2200
p6,armFront,41,324,124,0,0,1,1,245578,247090,249164,2074
p6,armFront,42,321,341,0,1,0,1,249941,251445,255152,3707
p6,armFront,43,143,143,1,1,1,1,255905,257408,259308,1900
p6,armFront,44,214,214,1,1,1,1,260552,262055,264777,2722
p6,armFront,45,312,314,0,1,1,0,265656,267159,269536,2377
p6,armFront,46,124,124,1,1,1,1,270208,271711,274037,2326
p6,armFront,47,214,214,1,1,1,1,275040,276543,279168,2625
p6,armFront,48,342,341,0,1,1,0,279853,281357,285061,3704
p6,armFront,49,124,124,1,1,1,1,285906,287409,289803,2394
p6,armFront,50,324,341,0,1,0,0,290554,292059,298621,6562
p6,armFront,51,341,341,1,1,1,1,299341,300844,303104,2260
p6,armFront,52,342,341,0,1,1,0,303992,305495,308778,3283
p6,armFront,53,412,432,0,1,0,1,309487,310991,314038,3047
p6,armFront,54,214,234,0,1,0,1,314712,316215,319512,3297
p6,armFront,55,321,341,0,1,0,1,320187,321690,324581,2891
p6,armFront,56,142,342,0,0,1,1,325608,327116,329235,2119
p6,armFront,57,134,134,1,1,1,1,330029,331532,334148,2616
p6,armFront,58,312,312,1,1,1,1,334889,336393,339331,2938
p6,armFront,59,243,243,1,1,1,1,340007,341510,343222,1712
p6,armFront,60,342,342,1,1,1,1,344364,345867,347635,1768
p6,armFront,61,431,431,1,1,1,1,368812,370322,372768,2446
p6,armFront,62,423,421,0,1,1,0,373612,375115,376601,1486
p6,armFront,63,123,143,0,1,0,1,377236,378740,382274,3534
p6,armFront,64,132,134,0,1,1,0,383628,385132,387127,1995
p6,armFront,65,213,413,0,0,1,1,387796,389300,391380,2080
p6,armFront,66,341,341,1,1,1,1,392119,393622,395858,2236
p6,armFront,67,124,124,1,1,1,1,396476,397979,400025,2046
p6,armFront,68,314,312,0,1,1,0,400859,402362,405109,2747
p6,armFront,69,213,413,0,0,1,1,405812,407316,410852,3536
p6,armFront,70,234,234,1,1,1,1,413167,414671,417661,2990
p6,armFront,71,231,241,0,1,0,1,418856,420360,423331,2971
p6,armFront,72,321,123,0,0,1,0,424166,425669,429834,4165
p6,armFront,73,321,142,0,0,0,0,430579,432082,434221,2139
p6,armFront,74,243,243,1,1,1,1,437171,438673,440995,2322
p6,armFront,75,413,413,1,1,1,1,441652,443156,445683,2527
p6,armFront,76,423,421,0,1,1,0,446535,448038,450539,2501
p6,armFront,77,124,124,1,1,1,1,451281,452788,454998,2210
p6,armFront,78,143,123,0,1,0,1,455737,457240,459925,2685
p6,armFront,79,423,421,0,1,1,0,460859,462362,465191,2829
p6,armFront,80,132,134,0,1,1,0,465906,467409,468967,1558
p6,armFront,81,134,134,1,1,1,1,489748,491257,493607,2350
p6,armFront,82,243,241,0,1,1,0,494449,495953,498661,2708
p6,armFront,83,324,324,1,1,1,1,499489,500999,503827,2828
p6,armFront,84,241,241,1,1,1,1,504530,506033,507926,1893
p6,armFront,85,413,413,1,1,1,1,508745,510248,512971,2723
p6,armFront,86,312,312,1,1,1,1,513664,515167,518368,3201
p6,armFront,87,421,421,1,1,1,1,519290,520793,523206,2413
p6,armFront,88,132,134,0,1,1,0,523958,525461,527139,1678
p6,armFront,89,321,341,0,1,0,1,527868,529385,532528,3143
p6,armFront,90,324,342,0,1,0,0,533311,534814,538059,3245
p6,armFront,91,231,431,0,0,1,1,538796,540299,542209,1910
p6,armFront,92,142,342,0,0,1,1,543261,544764,547067,2303
p6,armFront,93,241,243,0,1,1,0,547835,549338,551356,2018
p6,armFront,94,231,213,0,1,0,0,552158,553661,555543,1882
p6,armFront,95,132,134,0,1,1,0,556394,557897,560000,2103
p6,armFront,96,243,243,1,1,1,1,560957,562461,564578,2117
p6,armFront,97,324,324,1,1,1,1,565358,566860,570714,3854
p6,armFront,98,143,123,0,1,0,1,571495,572999,575591,2592
p6,armFront,99,123,341,0,0,0,0,576333,577836,580567,2731
p6,armFront,100,421,421,1,1,1,1,581339,582843,585535,2692
p6,armFront,101,241,241,1,1,1,1,606391,607900,612017,4117
p6,armFront,102,234,234,1,1,1,1,612814,614320,616797,2477
p6,armFront,103,314,341,0,1,0,0,617469,618972,622139,3167
p6,armFront,104,341,143,0,0,1,0,622838,624341,625952,1611
p6,armFront,105,213,213,1,1,1,1,626759,628262,630881,2619
p6,armFront,106,314,314,1,1,1,1,631597,633101,635485,2384
p6,armFront,107,234,214,0,1,0,1,636275,637778,639832,2054
p6,armFront,108,123,123,1,1,1,1,640554,642058,645420,3362
p6,armFront,109,431,431,1,1,1,1,646434,647937,650474,2537
p6,armFront,110,241,241,1,1,1,1,651500,653003,655615,2612
p6,armFront,111,413,413,1,1,1,1,658337,659840,662509,2669
p6,armFront,112,143,143,1,1,1,1,663273,664776,666946,2170
p6,armFront,113,432,432,1,1,1,1,667674,669178,672024,2846
p6,armFront,114,142,142,1,1,1,1,672946,674449,677753,3304
p6,armFront,115,312,124,0,0,0,0,678508,680012,681947,1935
p6,armFront,116,423,421,0,1,1,0,682765,684269,686908,2639
p6,armFront,117,241,241,1,1,1,1,687754,689257,691036,1779
p6,armFront,118,342,342,1,1,1,1,691753,693256,695289,2033
p6,armFront,119,432,231,0,0,1,0,696001,697504,700400,2896
p6,armFront,120,421,241,0,0,0,1,701173,702676,705142,2466
