id,cond,trial#,realPattern,userAnswer,correct,c1,c2,c3,playstamp,playendstamp,enterstamp,reactionTime
p8,armFront,1,234,234,1,1,1,1,2481,3984,6939,2955
p8,armFront,2,314,314,1,1,1,1,7642,9145,11289,2144
p8,armFront,3,124,324,0,0,1,1,11953,13457,15069,1612
p8,armFront,4,342,342,1,1,1,1,15748,17251,18805,1554
p8,armFront,5,413,413,1,1,1,1,19448,20952,23540,2588
p8,armFront,6,142,142,1,1,1,1,24484,25987,27762,1775
p8,armFront,7,213,213,1,1,1,1,28523,30027,32228,2201
p8,armFront,8,213,413,0,0,1,1,32929,34432,35978,1546
p8,armFront,9,123,143,0,1,0,1,36669,38172,39955,1783
p8,armFront,10,231,431,0,0,1,1,40654,42158,43503,1345
p8,armFront,11,312,314,0,1,1,0,44193,45696,48172,2476
p8,armFront,12,213,213,1,1,1,1,48848,50351,52255,1904
p8,armFront,13,324,324,1,1,1,1,53088,54591,55796,1205
p8,armFront,14,143,143,1,1,1,1,56479,57982,59698,1716
p8,armFront,15,124,124,1,1,1,1,60373,61876,63580,1704
p8,armFront,16,423,423,1,1,1,1,64199,65701,67173,1472
p8,armFront,17,132,132,1,1,1,1,67825,69329,70598,1269
p8,armFront,18,321,321,1,1,1,1,71235,72738,74598,1860
p8,armFront,19,134,134,1,1,1,1,75234,76737,81599,4862
p8,armFront,20,243,243,1,1,1,1,82357,83860,85459,1599
p8,armFront,21,421,421,1,1,1,1,106646,108154,109439,1285
p8,armFront,22,321,341,0,1,0,1,110104,111607,116208,4601
p8,armFront,23,231,231,1,1,1,1,116954,118457,120464,2007
p8,armFront,24,432,234,0,0,1,0,121132,122635,126974,4339
p8,armFront,25,214,214,1,1,1,1,127602,129106,131806,2700
p8,armFront,26,214,214,1,1,1,1,132653,134156,137866,3710
p8,armFront,27,312,124,0,0,0,0,138547,140050,141632,1582
p8,armFront,28,314,324,0,1,0,1,142295,143798,145338,1540
p8,armFront,29,132,134,0,1,1,0,146030,147533,148552,1019
p8,armFront,30,234,234,1,1,1,1,149230,150733,152308,1575
p8,armFront,31,431,432,0,1,1,0,152958,154462,156348,1886
p8,armFront,32,124,143,0,1,0,0,157131,158634,159715,1081
p8,armFront,33,321,341,0,1,0,1,160406,161909,163539,1630
p8,armFront,34,124,124,1,1,1,1,164206,165710,167368,1658
p8,armFront,35,241,241,1,1,1,1,168019,169522,170933,1411
p8,armFront,36,421,421,1,1,1,1,171645,173149,174941,1792
p8,armFront,37,423,423,1,1,1,1,175591,177095,178368,1273
p8,armFront,38,341,124,0,0,0,0,179055,180558,181979,1421
p8,armFront,39,214,214,1,1,1,1,182639,184143,185575,1432
p8,armFront,40,341,341,1,1,1,1,186358,187861,190274,2413
p8,armFront,41,341,341,1,1,1,1,212863,214370,216751,2381
p8,armFront,42,342,342,1,1,1,1,217432,218937,220655,1718
p8,armFront,43,423,423,1,1,1,1,221557,223059,225461,2402
p8,armFront,44,143,243,0,0,1,1,226112,227616,229693,2077
p8,armFront,45,134,134,1,1,1,1,230353,231856,233840,1984
p8,armFront,46,421,243,0,0,0,0,234504,236007,239363,3356
p8,armFront,47,243,241,0,1,1,0,240051,241555,244847,3292
p8,armFront,48,143,143,1,1,1,1,245494,246998,250052,3054
p8,armFront,49,421,421,1,1,1,1,250717,252220,253941,1721
p8,armFront,50,132,134,0,1,1,0,254605,256108,258148,2040
p8,armFront,51,324,234,0,0,0,1,258819,260322,262736,2414
p8,armFront,52,412,413,0,1,1,0,263398,264902,267240,2338
p8,armFront,53,231,231,1,1,1,1,268580,270083,272767,2684
p8,armFront,54,431,431,1,1,1,1,273741,275243,277067,1824
p8,armFront,55,413,423,0,1,0,1,277744,279247,281089,1842
p8,armFront,56,341,341,1,1,1,1,281780,283283,285229,1946
p8,armFront,57,214,413,0,0,1,0,285911,287414,289417,2003
p8,armFront,58,241,241,1,1,1,1,290062,291565,292862,1297
p8,armFront,59,142,142,1,1,1,1,293485,294988,296605,1617
p8,armFront,60,314,314,1,1,1,1,297230,298733,299784,1051
p8,armFront,61,234,234,1,1,1,1,321485,322993,326382,3389
p8,armFront,62,312,124,0,0,0,0,327093,328602,330006,1404
p8,armFront,63,213,213,1,1,1,1,330713,332216,333759,1543
p8,armFront,64,213,213,1,1,1,1,334439,335942,338219,2277
p8,armFront,65,412,214,0,0,1,0,338855,340358,344814,4456
p8,armFront,66,134,134,1,1,1,1,345542,347046,348421,1375
p8,armFront,67,243,241,0,1,1,0,349112,350615,353992,3377
p8,armFront,68,243,241,0,1,1,0,354732,356236,357481,1245
p8,armFront,69,412,214,0,0,1,0,358221,359725,362740,3015
p8,armFront,70,142,142,1,1,1,1,363359,364862,366173,1311
p8,armFront,71,312,314,0,1,1,0,366853,368356,370560,2204
p8,armFront,72,123,143,0,1,0,1,371204,372707,373666,959
p8,armFront,73,314,314,1,1,1,1,374354,375875,377461,1586
p8,armFront,74,241,241,1,1,1,1,378186,379689,381191,1502
p8,armFront,75,142,142,1,1,1,1,381825,383327,385310,1983
p8,armFront,76,234,234,1,1,1,1,385920,387423,388912,1489
p8,armFront,77,432,412,0,1,0,1,389532,391034,393897,2863
p8,armFront,78,214,214,1,1,1,1,394517,396021,398055,2034
p8,armFront,79,231,231,1,1,1,1,398714,400227,402398,2171
p8,armFront,80,431,412,0,1,0,0,403050,404553,406219,1666
p8,armFront,81,234,234,1,1,1,1,426973,428483,430767,2284
p8,armFront,82,124,124,1,1,1,1,431437,432941,435221,2280
p8,armFront,83,432,432,1,1,1,1,435944,437448,439565,2117
p8,armFront,84,413,413,1,1,1,1,441049,442552,443996,1444
p8,armFront,85,123,243,0,0,0,1,444671,446175,448057,1882
p8,armFront,86,123,143,0,1,0,1,448758,450262,454289,4027
p8,armFront,87,132,214,0,0,0,0,454989,456492,458511,2019
p8,armFront,88,324,324,1,1,1,1,459177,460680,462564,1884
p8,armFront,89,324,124,0,0,1,1,463261,464764,467768,3004
p8,armFront,90,342,142,0,0,1,1,468434,469938,471925,1987
p8,armFront,91,241,241,1,1,1,1,472572,474076,475745,1669
p8,armFront,92,413,413,1,1,1,1,476388,477891,479829,1938
p8,armFront,93,321,123,0,0,1,0,480468,481972,484106,2134
p8,armFront,94,423,423,1,1,1,1,484776,486279,487426,1147
p8,armFront,95,314,324,0,1,0,1,488083,489587,491272,1685
p8,armFront,96,412,412,1,1,1,1,491904,493408,494887,1479
p8,armFront,97,421,421,1,1,1,1,495540,497043,499052,2009
p8,armFront,98,134,134,1,1,1,1,499671,501174,502536,1362
p8,armFront,99,241,241,1,1,1,1,503139,504643,506444,1801
p8,armFront,100,431,431,1,1,1,1,507139,508642,510238,1596
p8,armFront,101,432,412,0,1,0,1,531022,532528,533765,1237
p8,armFront,102,342,342,1,1,1,1,534378,535883,537321,1438
p8,armFront,103,324,324,1,1,1,1,537951,539454,541190,1736
p8,armFront,104,413,413,1,1,1,1,541814,543317,544907,1590
p8,armFront,105,123,321,0,0,1,0,545662,547166,550849,3683
p8,armFront,106,132,132,1,1,1,1,551486,552989,553954,965
p8,armFront,107,231,214,0,1,0,0,554626,556129,559133,3004
p8,armFront,108,312,314,0,1,1,0,559749,561253,562574,1321
p8,armFront,109,321,321,1,1,1,1,563205,564709,566238,1529
p8,armFront,110,142,142,1,1,1,1,566879,568382,570429,2047
p8,armFront,111,143,143,1,1,1,1,571121,572624,573911,1287
p8,armFront,112,432,412,0,1,0,1,574578,576082,577975,1893
p8,armFront,113,134,134,1,1,1,1,578659,580161,583550,3389
p8,armFront,114,341,241,0,0,1,1,584177,585681,589023,3342
p8,armFront,115,143,143,1,1,1,1,590116,591618,592827,1209
p8,armFront,116,243,241,0,1,1,0,593496,594999,596591,1592
p8,armFront,117,412,213,0,0,1,0,597256,598759,600749,1990
p8,armFront,118,431,431,1,1,1,1,601370,602873,604226,1353
p8,armFront,119,342,142,0,0,1,1,604852,606355,609500,3145
p8,armFront,120,423,421,0,1,1,0,611064,612566,615388,2822
