id,cond,trial#,realPattern,userAnswer,correct,c1,c2,c3,playstamp,playendstamp,enterstamp,reactionTime
p12,A(Baseline1),1,413,414,0,1,1,0,2457,3960,6343,2383
p12,A(Baseline1),2,412,412,1,1,1,1,7218,8721,10819,2098
p12,A(Baseline1),3,132,142,0,1,0,1,11587,13090,16473,3383
p12,A(Baseline1),4,414,414,1,1,1,1,17205,18709,21281,2572
p12,A(Baseline1),5,431,431,1,1,1,1,22047,23550,26125,2575
p12,A(Baseline1),6,432,431,0,1,1,0,26879,28382,30870,2488
p12,A(Baseline1),7,123,124,0,1,1,0,31693,33196,36105,2909
p12,A(Baseline1),8,342,414,0,0,0,0,36804,38307,40873,2566
p12,A(Baseline1),9,131,141,0,1,0,1,41803,43306,45856,2550
p12,A(Baseline1),10,412,412,1,1,1,1,46548,48052,50530,2478
p12,A(Baseline1),11,234,214,0,1,0,1,51393,52896,54762,1866
p12,A(Baseline1),12,212,234,0,1,0,0,55555,57058,59805,2747
p12,A(Baseline1),13,341,412,0,0,0,0,61400,62903,65488,2585
p12,A(Baseline1),14,132,132,1,1,1,1,66380,67883,71040,3157
p12,A(Baseline1),15,124,123,0,1,1,0,71754,73258,76553,3295
p12,A(Baseline1),16,232,231,0,1,1,0,77314,78818,81718,2900
p12,A(Baseline1),17,324,323,0,1,1,0,82461,83964,87009,3045
p12,A(Baseline1),18,121,323,0,0,1,0,87852,89355,91892,2537
p12,A(Baseline1),19,123,323,0,0,1,1,92710,94212,96942,2730
p12,A(Baseline1),20,231,232,0,1,1,0,97771,99275,101830,2555
p12,A(Baseline1),21,134,142,0,1,0,0,132636,134142,137060,2918
p12,A(Baseline1),22,421,421,1,1,1,1,137880,139385,142558,3173
p12,A(Baseline1),23,313,414,0,0,1,0,143361,144864,147110,2246
p12,A(Baseline1),24,242,242,1,1,1,1,147880,149384,151794,2410
p12,A(Baseline1),25,123,124,0,1,1,0,152939,154443,156604,2161
p12,A(Baseline1),26,132,232,0,0,1,1,157343,158846,161603,2757
p12,A(Baseline1),27,314,424,0,0,0,1,162354,163858,166143,2285
p12,A(Baseline1),28,121,242,0,0,0,0,166933,168436,170495,2059
p12,A(Baseline1),29,141,242,0,0,1,0,171313,172817,174722,1905
p12,A(Baseline1),30,313,424,0,0,0,0,175582,177086,179093,2007
p12,A(Baseline1),31,343,424,0,0,0,0,179854,181357,183796,2439
p12,A(Baseline1),32,343,424,0,0,0,0,184526,186029,188030,2001
p12,A(Baseline1),33,241,243,0,1,1,0,188850,190353,192112,1759
p12,A(Baseline1),34,341,423,0,0,0,0,192874,194377,196630,2253
p12,A(Baseline1),35,241,243,0,1,1,0,197495,198998,201892,2894
p12,A(Baseline1),36,243,243,1,1,1,1,202681,204185,206812,2627
p12,A(Baseline1),37,141,241,0,0,1,1,207596,209100,211286,2186
p12,A(Baseline1),38,213,214,0,1,1,0,212077,213581,216090,2509
p12,A(Baseline1),39,434,432,0,1,1,0,216905,218409,221632,3223
p12,A(Baseline1),40,232,242,0,1,0,1,222361,223864,226203,2339
p12,A(Baseline1),41,423,242,0,0,0,0,257033,258541,261119,2578
p12,A(Baseline1),42,321,421,0,0,1,1,261877,263380,266508,3128
p12,A(Baseline1),43,324,424,0,0,1,1,267615,269118,271423,2305
p12,A(Baseline1),44,312,412,0,0,1,1,272319,273824,277049,3225
p12,A(Baseline1),45,312,421,0,0,0,0,277840,279343,283448,4105
p12,A(Baseline1),46,143,242,0,0,1,0,284354,285858,288763,2905
p12,A(Baseline1),47,424,424,1,1,1,1,289519,291023,293407,2384
p12,A(Baseline1),48,423,424,0,1,1,0,294169,295672,298379,2707
p12,A(Baseline1),49,424,424,1,1,1,1,299274,300777,302571,1794
p12,A(Baseline1),50,212,232,0,1,0,1,303315,304819,307128,2309
p12,A(Baseline1),51,343,424,0,0,0,0,307852,309356,311435,2079
p12,A(Baseline1),52,324,424,0,0,1,1,312186,313689,315718,2029
p12,A(Baseline1),53,143,142,0,1,1,0,316406,317909,320726,2817
p12,A(Baseline1),54,124,124,1,1,1,1,321464,322969,325238,2269
p12,A(Baseline1),55,314,414,0,0,1,1,325969,327473,330352,2879
p12,A(Baseline1),56,242,242,1,1,1,1,331088,332591,334999,2408
p12,A(Baseline1),57,314,424,0,0,0,1,335787,337290,339668,2378
p12,A(Baseline1),58,231,241,0,1,0,1,340500,342004,344264,2260
p12,A(Baseline1),59,414,412,0,1,1,0,345615,347118,350519,3401
p12,A(Baseline1),60,434,434,1,1,1,1,351461,352964,355336,2372
p12,A(Baseline1),61,341,124,0,0,0,0,386139,387646,390766,3120
p12,A(Baseline1),62,432,432,1,1,1,1,391508,393010,396299,3289
p12,A(Baseline1),63,323,424,0,0,1,0,397051,398553,401023,2470
p12,A(Baseline1),64,124,124,1,1,1,1,401743,403246,405324,2078
p12,A(Baseline1),65,213,234,0,1,0,0,406076,407579,409898,2319
p12,A(Baseline1),66,243,243,1,1,1,1,410639,412142,414049,1907
p12,A(Baseline1),67,141,121,0,1,0,1,414795,416298,419532,3234
p12,A(Baseline1),68,213,214,0,1,1,0,420264,421767,424165,2398
p12,A(Baseline1),69,134,234,0,0,1,1,424868,426372,428714,2342
p12,A(Baseline1),70,413,414,0,1,1,0,429445,430949,433193,2244
p12,A(Baseline1),71,414,414,1,1,1,1,433890,435394,438045,2651
p12,A(Baseline1),72,412,414,0,1,1,0,438749,440253,442376,2123
p12,A(Baseline1),73,323,414,0,0,0,0,443131,444634,446908,2274
p12,A(Baseline1),74,232,142,0,0,0,1,447607,449110,455107,5997
p12,A(Baseline1),75,241,241,1,1,1,1,455776,457279,459554,2275
p12,A(Baseline1),76,242,242,1,1,1,1,460451,461954,464347,2393
p12,A(Baseline1),77,131,141,0,1,0,1,465146,466650,468658,2008
p12,A(Baseline1),78,243,243,1,1,1,1,469378,470881,472885,2004
p12,A(Baseline1),79,321,321,1,1,1,1,473603,475106,478590,3484
p12,A(Baseline1),80,142,132,0,1,0,1,479342,480845,484202,3357
p12,A(Baseline1),81,321,414,0,0,0,0,515720,517229,519982,2753
p12,A(Baseline1),82,134,142,0,1,0,0,520712,522217,524818,2601
p12,A(Baseline1),83,212,232,0,1,0,1,525647,527151,529962,2811
p12,A(Baseline1),84,424,424,1,1,1,1,530663,532166,534369,2203
p12,A(Baseline1),85,312,312,1,1,1,1,535105,536608,539476,2868
p12,A(Baseline1),86,432,342,0,0,0,1,540229,541733,544410,2677
p12,A(Baseline1),87,323,323,1,1,1,1,545145,546649,549234,2585
p12,A(Baseline1),88,342,132,0,0,0,1,549985,551488,554259,2771
p12,A(Baseline1),89,143,132,0,1,0,0,554961,556465,559332,2867
p12,A(Baseline1),90,423,324,0,0,1,0,560072,561576,563778,2202
p12,A(Baseline1),91,313,313,1,1,1,1,564490,565993,567660,1667
p12,A(Baseline1),92,214,234,0,1,0,1,568379,569882,571895,2013
p12,A(Baseline1),93,121,121,1,1,1,1,572604,574107,576603,2496
p12,A(Baseline1),94,421,313,0,0,0,0,577499,579002,580941,1939
p12,A(Baseline1),95,142,131,0,1,0,0,581692,583195,585563,2368
p12,A(Baseline1),96,431,131,0,0,1,1,586346,587849,590436,2587
p12,A(Baseline1),97,413,312,0,0,1,0,591182,592685,596480,3795
p12,A(Baseline1),98,431,431,1,1,1,1,597343,598846,601114,2268
p12,A(Baseline1),99,434,434,1,1,1,1,601858,603361,606071,2710
p12,A(Baseline1),100,234,314,0,0,0,1,606833,608336,610269,1933
p12,A(Baseline1),101,342,341,0,1,1,0,641136,642644,645312,2668
p12,A(Baseline1),102,142,142,1,1,1,1,646013,647523,649952,2429
p12,A(Baseline1),103,234,234,1,1,1,1,650688,652191,654529,2338
p12,A(Baseline1),104,231,241,0,1,0,1,655238,656742,659725,2983
p12,A(Baseline1),105,421,321,0,0,1,1,660470,661973,664417,2444
p12,A(Baseline1),106,214,234,0,1,0,1,665337,666841,669065,2224
p12,A(Baseline1),107,214,234,0,1,0,1,669909,671413,674377,2964
p12,A(Baseline1),108,131,343,0,0,0,0,675344,676847,680138,3291
